                                                                                LinearAcceleration                                                              10.04.2519.43.20104 
Timestamp,AccX,AccY,AccZ
1744304518.963,-4.733172416687012,6.795858860015869,-5.393614768981934
1744304518.963,-2.584340810775757,8.021027565002441,-2.670485496520996
1744304518.963,-3.182567834854126,8.418251037597656,-3.4266443252563477
1744304518.963,-2.402479648590088,9.997570037841797,-1.3687434196472168
1744304518.963,-1.770751953125,12.03154182434082,-0.03828652948141098
1744304518.963,0.014357448555529118,13.357213020324707,0.7226582169532776
1744304518.963,0.6604426503181458,12.471837043762207,0.16750356554985046
1744304518.963,-0.181861013174057,10.337363243103027,-0.5838695764541626
1744304519.037,-0.11485958844423294,8.872902870178223,-1.8903974294662476
1744304519.037,0.44986671209335327,8.42782211303711,-2.9480626583099365
1744304519.037,-0.4929390549659729,8.58575439453125,-3.6372203826904297
1744304519.037,-1.8186101913452148,9.71520709991455,-4.1493024826049805
1744304519.037,-2.7518444061279297,10.10285758972168,-4.785816192626953
1744304519.037,-2.584340810775757,9.791779518127441,-4.455595016479492
1744304519.037,-1.7611804008483887,9.442415237426758,-3.436216115951538
1744304519.037,-0.4450809061527252,9.911425590515137,-2.0818300247192383
1744304519.111,0.7370156645774841,10.418722152709961,-1.1581674814224243
1744304519.111,0.8662327527999878,10.370863914489746,-1.110309362411499
1744304519.111,0.04307234659790993,10.083714485168457,-1.4022440910339355
1744304519.111,-1.1342384815216064,9.820494651794434,-1.8999689817428589
1744304519.111,-1.966970443725586,9.676919937133789,-2.61305570602417
1744304519.111,-2.115330696105957,9.490273475646973,-3.0868513584136963
1744304519.111,-1.7133221626281738,9.36584186553955,-3.3835721015930176
1744304519.111,-0.7226582169532776,9.428057670593262,-3.1107804775238037
1744304519.185,-0.11485958844423294,9.514202117919922,-2.7662017345428467
1744304519.185,-0.4211518168449402,9.490273475646973,-2.584340810775757
1744304519.185,-0.923662543296814,9.729564666748047,-2.297191858291626
1744304519.185,-1.019378900527954,9.973641395568848,-2.464695453643799
1744304519.185,-1.0576653480529785,10.035856246948242,-2.7853450775146484
1744304519.185,-1.0050214529037476,9.772636413574219,-3.015064239501953
1744304519.185,-1.110309362411499,9.590775489807129,-3.134709596633911
1744304519.185,-1.2825987339019775,9.356270790100098,-4.1205878257751465
1744304519.259,-0.6604426503181458,9.839637756347656,-2.8762755393981934
1744304519.259,-2.3019776344299316,9.236625671386719,-5.149538040161133
1744304519.259,0.06221561133861542,9.456772804260254,-3.91479754447937
1744304519.259,-0.7896596789360046,10.021498680114746,-2.1679747104644775
1744304519.259,-1.359171748161316,10.25121784210205,-2.4359803199768066
1744304519.259,0.6604426503181458,10.681941986083984,-1.7037506103515625
1744304519.259,0.7130866050720215,11.069592475891113,-1.1629533767700195
1744304519.259,1.2634555101394653,11.323241233825684,-0.8470894694328308
1744304519.333,0.9763064980506897,11.567317962646484,-0.5360113978385925
1744304519.333,0.46900999546051025,11.160523414611816,-1.6846072673797607
1744304519.333,0.3924369215965271,11.323241233825684,-2.325906753540039
1744304519.333,-0.12921704351902008,11.811394691467285,-2.5460541248321533
1744304519.333,-0.4642241597175598,12.237332344055176,-2.7518444061279297
1744304519.333,-0.679585874080658,12.964776039123535,-3.5080032348632812
1744304519.333,-0.3732936680316925,12.950418472290039,-2.943276882171631
1744304519.333,-0.11964540183544159,13.476858139038086,-2.7997024059295654
1744304519.407,0.07657305896282196,14.185158729553223,-2.5173392295837402
1744304519.407,0.06221561133861542,15.185394287109375,-2.1536173820495605
1744304519.407,0.009571632370352745,16.597209930419922,-2.086615800857544
1744304519.407,0.2823631465435028,18.382320404052734,-2.129688262939453
1744304519.407,2.057900905609131,21.253808975219727,-2.703986167907715
1744304519.407,2.823631525039673,23.67064666748047,-3.933940887451172
1744304519.407,3.9100117683410645,25.07767677307129,-5.518045902252197
1744304519.407,6.546996593475342,24.378948211669922,-7.2265825271606445
1744304519.481,8.025814056396484,22.15354347229004,-8.188531875610352
1744304519.481,10.045428276062012,18.238744735717773,-8.590539932250977
1744304519.481,7.6908063888549805,14.845602035522461,-6.738429069519043
1744304519.481,-1.7516087293624878,13.189709663391113,-3.933940887451172
1744304519.481,-12.112900733947754,11.643890380859375,-8.987762451171875
1744304519.481,-13.47207260131836,13.084421157836914,-9.93056869506836
1744304519.481,-15.879338264465332,15.075321197509766,-4.733172416687012
1744304519.481,-15.707048416137695,14.08944320678711,-6.4464945793151855
1744304519.555,-7.695592403411865,13.371570587158203,-2.7853450775146484
1744304519.555,-1.306527853012085,11.78746509552002,0.4642241597175598
1744304519.555,-1.3783150911331177,9.55727481842041,1.1677391529083252
1744304519.555,-3.469716787338257,8.528324127197266,2.2110471725463867
1744304519.555,-4.508238792419434,8.044957160949707,2.368978977203369
1744304519.555,-5.0346784591674805,7.733879089355469,1.8042527437210083
1744304519.555,-4.560883045196533,7.250511646270752,2.129688262939453
1744304519.555,-3.7185792922973633,6.211989402770996,1.9717562198638916
1744304519.629,-2.852346420288086,5.211753845214844,1.689393162727356
1744304519.629,-2.761415958404541,4.2545905113220215,0.8758043646812439
1744304519.629,-2.9145619869232178,3.3692145347595215,1.2825987339019775
1744304519.629,-2.445552110671997,2.7518444061279297,1.8999689817428589
1744304519.629,-1.9143264293670654,2.9145619869232178,2.1249024868011475
1744304519.629,-1.8425391912460327,3.527146577835083,2.2732627391815186
1744304519.629,-2.7662017345428467,4.111016273498535,2.172760486602783
1744304519.629,-4.527381896972656,3.9100117683410645,2.1392598152160645
1744304519.703,-4.790602207183838,3.287855625152588,1.7946810722351074
1744304519.703,-4.096658706665039,2.3833365440368652,1.2490980625152588
1744304519.703,-3.5319323539733887,2.038757801055908,0.7513731122016907
1744304519.703,-3.0246357917785645,2.0914015769958496,0.1914326548576355
1744304519.703,-2.493410348892212,2.292405843734741,0.09571632742881775
1744304519.703,-2.129688262939453,2.3019776344299316,0.5264397859573364
1744304519.703,-1.3256710767745972,2.014828681945801,0.5312256217002869
1744304519.703,-0.382865309715271,1.7659661769866943,0.7418015003204346
1744304519.777,0.3732936680316925,1.8281817436218262,0.8901618123054504
1744304519.777,0.5742979645729065,1.7228938341140747,0.9571632146835327
1744304519.777,1.0672370195388794,1.7468229532241821,0.43550926446914673
1744304519.777,0.8710185289382935,1.7372512817382812,0.15793193876743317
1744304519.777,0.5072965025901794,1.742037057876587,-0.49772489070892334
1744304519.777,0.21536172926425934,2.010042905807495,-1.148595929145813
1744304519.777,-0.5647262930870056,2.4694812297821045,-1.6702498197555542
1744304519.777,-1.4883887767791748,3.0724940299987793,-1.8616825342178345
1744304519.851,-2.598698139190674,3.49843168258667,-2.0052568912506104
1744304519.851,-3.5032174587249756,3.943512439727783,-1.9143264293670654
1744304519.851,-4.312020301818848,4.513024806976318,-1.2155972719192505
1744304519.851,-4.690099716186523,4.871960639953613,-0.41636601090431213
1744304519.851,-4.670956611633301,5.345756530761719,0.28714898228645325
1744304519.851,-5.072965145111084,5.805194854736328,0.588655412197113
1744304519.851,-5.943983554840088,6.278990745544434,0.3732936680316925
1744304519.851,-6.810216426849365,7.1500091552734375,-0.1005021408200264
1744304519.925,-8.044957160949707,7.992312908172607,-0.08135887235403061
1744304519.925,-9.447200775146484,8.973404884338379,0.0909305065870285
1744304519.925,-10.882946014404297,9.66256332397461,0.3445787727832794
1744304519.925,-11.217952728271484,10.471365928649902,0.3445787727832794
1744304519.925,-11.902324676513672,11.361527442932129,0.26800569891929626
1744304519.925,-12.069828033447266,12.567553520202637,0.08135887235403061
1744304519.925,-12.720699310302734,13.850152015686035,-0.009571632370352745
1744304519.925,-14.515380859375,14.515380859375,-0.09571632742881775
1744304519.999,-16.25263214111328,13.99372673034668,0.0909305065870285
1744304519.999,-16.578067779541016,12.802058219909668,0.21536172926425934
1744304519.999,-15.721405982971191,11.43331527709961,0.22971917688846588
1744304519.999,-19.588346481323242,9.116979598999023,-3.374000310897827
1744304519.999,-24.110942840576172,8.231603622436523,-9.322770118713379
1744304519.999,-12.959990501403809,16.30048942565918,-13.208852767944336
1744304519.999,2.627413034439087,25.254751205444336,-0.05264397710561752
1744304519.999,14.127729415893555,28.17409896850586,2.7709875106811523
1744304520.073,12.715913772583008,18.27703285217285,1.0241646766662598
1744304520.073,2.1249024868011475,13.53428840637207,-4.364664554595947
1744304520.073,-2.6178414821624756,8.542681694030762,-5.297898292541504
1744304520.073,-7.853524208068848,1.4740313291549683,-3.6228628158569336
1744304520.073,-8.743685722351074,1.9191123247146606,1.622391700744629
1744304520.073,-3.5175747871398926,2.0196144580841064,7.097365379333496
1744304520.073,-3.105994701385498,4.972463130950928,1.837753415107727
1744304520.073,-0.30629223585128784,11.184452056884766,-2.191903829574585
1744304520.147,1.6989647150039673,15.348112106323242,-2.7518444061279297
1744304520.147,-3.2782840728759766,13.979369163513184,-1.3639576435089111
1744304520.147,-4.4268798828125,11.964540481567383,0.6508709788322449
1744304520.147,-3.603719472885132,10.117215156555176,0.16750356554985046
1744304520.147,-3.570218801498413,10.552724838256836,-1.560176134109497
1744304520.147,-2.7231295108795166,11.60560417175293,-2.2445478439331055
1744304520.147,-2.9959208965301514,12.787700653076172,-1.689393162727356
1744304520.147,-3.5941479206085205,11.76353645324707,-1.110309362411499
1744304520.221,-4.369450092315674,9.160052299499512,-0.9810923337936401
1744304520.221,-2.7709875106811523,7.843952655792236,-1.0145930051803589
1744304520.221,-3.393143653869629,6.489566802978516,-1.3113136291503906
1744304520.221,-3.584576368331909,7.2265825271606445,-1.8186101913452148
1744304520.221,-2.5891265869140625,9.361056327819824,-1.9813278913497925
1744304520.221,-3.1251380443573,10.744157791137695,-2.2397620677948
1744304520.221,-3.4601449966430664,11.198809623718262,-2.172760486602783
1744304520.221,-2.9145619869232178,11.194024085998535,-1.651106595993042
1744304520.295,-3.3069989681243896,10.327791213989258,-1.7085363864898682
1744304520.295,-3.4745025634765625,9.944926261901855,-1.7228938341140747
1744304520.295,-2.809274196624756,9.815709114074707,-1.3974583148956299
1744304520.295,-2.924133777618408,9.28926944732666,-1.2921704053878784
1744304520.295,-2.809274196624756,8.360820770263672,-0.9954497814178467
1744304520.295,-3.1921393871307373,7.7673797607421875,-0.7896596789360046
1744304520.295,-2.8427748680114746,8.30817699432373,-0.6412993669509888
1744304520.295,-2.804488182067871,9.040407180786133,-1.1438100337982178
1744304520.369,-2.8714897632598877,10.002355575561523,-1.5793193578720093
1744304520.369,-2.3833365440368652,10.681941986083984,-1.3687434196472168
1744304520.369,-2.5316967964172363,10.705870628356934,-1.7276796102523804
1744304520.369,-2.699200391769409,10.217717170715332,-2.0196144580841064
1744304520.369,-2.6034839153289795,9.892282485961914,-1.9478272199630737
1744304520.369,-2.536482572555542,9.763065338134766,-1.6558923721313477
1744304520.369,-2.598698139190674,9.442415237426758,-1.7851094007492065
1744304520.369,-2.488624334335327,9.265339851379395,-2.0818300247192383
1744304520.443,-2.1871180534362793,8.963833808898926,-2.402479648590088
1744304520.443,-1.9191123247146606,8.82983112335205,-2.5029819011688232
1744304520.443,-1.8042527437210083,8.94947624206543,-2.6178414821624756
1744304520.443,-1.560176134109497,9.102622032165527,-2.732701063156128
1744304520.443,-1.4405306577682495,9.413700103759766,-2.6178414821624756
1744304520.443,-1.4309589862823486,9.528559684753418,-2.445552110671997
1744304520.443,-1.5745335817337036,9.499845504760742,-2.249333620071411
1744304520.443,-1.2825987339019775,9.432844161987305,-2.038757801055908
1744304520.517,-1.0528795719146729,9.183980941772461,-2.115330696105957
1744304520.517,-0.7848738431930542,8.987762451171875,-2.206261157989502
1744304520.517,-0.8566610813140869,8.944690704345703,-2.2014753818511963
1744304520.517,-1.0002355575561523,9.059550285339355,-2.3306925296783447
1744304520.517,-1.584105134010315,9.155266761779785,-2.493410348892212
1744304520.517,-1.6463208198547363,9.246196746826172,-2.1966896057128906
1744304520.517,-1.9095406532287598,9.31319808959961,-2.024400234222412
1744304520.517,-1.718108057975769,9.758278846740723,-1.9861136674880981
1744304520.591,-1.2538838386535645,9.968854904174805,-2.163188934326172
1744304520.591,-1.3831008672714233,10.021498680114746,-2.354621648788452
1744304520.591,-1.6319633722305298,10.054999351501465,-2.278048515319824
1744304520.591,-1.4357448816299438,9.83485221862793,-2.129688262939453
1744304520.591,-1.4979604482650757,9.667348861694336,-2.3785505294799805
1744304520.591,-1.5888910293579102,9.657776832580566,-2.3354783058166504
1744304520.591,-1.904754877090454,9.74870777130127,-2.2014753818511963
1744304520.591,-1.7851094007492065,10.021498680114746,-2.3211207389831543
1744304520.665,-1.531461238861084,10.045428276062012,-2.4216229915618896
1744304520.665,-1.4405306577682495,10.040642738342285,-2.3211207389831543
1744304520.665,-1.9143264293670654,10.069356918334961,-2.2254045009613037
1744304520.665,-2.2014753818511963,10.131572723388672,-2.1536173820495605
1744304520.665,-2.3163349628448486,10.098072052001953,-2.115330696105957
1744304520.665,-2.010042905807495,10.011927604675293,-2.1679747104644775
1744304520.665,-1.8903974294662476,9.906639099121094,-2.172760486602783
1744304520.665,-1.9478272199630737,9.887495994567871,-2.0961875915527344
1744304520.74,-1.966970443725586,9.925783157348633,-2.014828681945801
1744304520.74,-2.1057591438293457,10.050213813781738,-2.1249024868011475
1744304520.74,-1.9861136674880981,10.193788528442383,-2.1392598152160645
1744304520.74,-1.612820029258728,10.11242961883545,-2.354621648788452
1744304520.74,-1.3017419576644897,10.007142066955566,-2.4838385581970215
1744304520.74,-1.1868823766708374,9.801351547241211,-2.4359803199768066
1744304520.74,-1.0337363481521606,9.624276161193848,-2.6465563774108887
1744304520.74,-1.6415349245071411,9.39934253692627,-3.259140729904175
1744304520.815,-2.278048515319824,10.07892894744873,-2.4216229915618896
1744304520.815,2.129688262939453,10.90208911895752,-0.727444052696228
1744304520.815,-3.5223608016967773,9.490273475646973,-4.326377868652344
1744304520.815,-1.148595929145813,10.25121784210205,-1.521889567375183
1744304520.815,-1.2060257196426392,10.504866600036621,-2.191903829574585
1744304520.815,-1.1055235862731934,10.71065616607666,-1.966970443725586
1744304520.815,-0.9810923337936401,10.71065616607666,-1.876039981842041
1744304520.815,-1.7324655055999756,11.079164505004883,-1.7803236246109009
1744304520.889,-1.4692455530166626,11.261025428771973,-1.622391700744629
1744304520.889,-1.0959519147872925,11.284955024719238,-1.8808257579803467
1744304520.889,-0.5312256217002869,11.490744590759277,-2.014828681945801
1744304520.889,-0.14357449114322662,12.385692596435547,-2.043543577194214
1744304520.889,-0.7848738431930542,13.227995872497559,-1.957398772239685
1744304520.889,-1.6415349245071411,13.88843822479248,-2.7231295108795166
1744304520.889,-2.3354783058166504,14.429235458374023,-3.2304258346557617
1744304520.889,-2.3785505294799805,15.137537002563477,-3.043779134750366
1744304520.963,-1.995685338973999,16.046842575073242,-2.9528486728668213
1744304520.963,-0.765730619430542,16.96571922302246,-2.5699832439422607
1744304520.963,0.4020085632801056,17.54958724975586,-2.2014753818511963
1744304520.963,2.7566301822662354,17.985097885131836,-1.335242748260498
1744304520.963,2.4359803199768066,17.071006774902344,-2.852346420288086
1744304520.963,3.943512439727783,16.262203216552734,-3.0389933586120605
1744304520.963,3.6085054874420166,14.295232772827148,-2.6369848251342773
1744304520.963,1.3639576435089111,13.314140319824219,-4.187589168548584
1744304521.037,4.972463130950928,12.572339057922363,-4.895889759063721
1744304521.037,1.9334697723388672,11.591246604919434,-5.221325397491455
1744304521.037,-0.8231604099273682,10.715442657470703,-5.503688812255859
1744304521.037,-3.900440216064453,10.552724838256836,-3.886082649230957
1744304521.037,-9.31319808959961,9.882710456848145,-5.096894264221191
1744304521.037,-7.5998759269714355,10.126787185668945,-4.699671268463135
1744304521.037,-6.94421911239624,9.944926261901855,-3.6850783824920654
1744304521.037,-4.575240135192871,8.992548942565918,-2.4503378868103027
1744304521.112,-3.5032174587249756,6.044486045837402,-5.843481540679932
1744304521.112,0.8088029623031616,5.302684307098389,-2.6034839153289795
1744304521.112,4.728386402130127,4.484309673309326,-1.799466848373413
1744304521.112,5.398400783538818,3.91479754447937,-0.6365135312080383
1744304521.112,4.699671268463135,3.737722396850586,0.4833674430847168
1744304521.112,2.9911351203918457,3.0724940299987793,-0.09571632742881775
1744304521.112,2.3976938724517822,2.7279152870178223,-0.6987291574478149
1744304521.112,2.1536173820495605,2.6896286010742188,-0.7418015003204346
1744304521.187,1.8808257579803467,2.8571321964263916,-0.7753022313117981
1744304521.187,1.6319633722305298,3.02942156791687,-1.0241646766662598
1744304521.187,1.5793193578720093,3.0533506870269775,-1.2538838386535645
1744304521.187,1.1725249290466309,3.077279806137085,-1.3926725387573242
1744304521.187,0.8997334241867065,3.3213565349578857,-1.426173210144043
1744304521.187,0.7370156645774841,3.8047239780426025,-1.1198810338974
1744304521.187,0.8183745741844177,4.828888416290283,-0.7370156645774841
1744304521.187,1.1438100337982178,6.188060283660889,-0.26800569891929626
1744304521.262,1.5984625816345215,7.1356520652771,0.4115802049636841
1744304521.262,1.3496001958847046,7.719521522521973,0.8375178575515747
1744304521.262,0.708300769329071,8.351249694824219,1.3783150911331177
1744304521.262,-0.22971917688846588,9.380199432373047,1.4022440910339355
1744304521.262,-1.081594467163086,10.433079719543457,1.1438100337982178
1744304521.262,-1.0480937957763672,11.184452056884766,0.952377438545227
1744304521.262,-0.5790837407112122,11.576889038085938,0.7896596789360046
1744304521.262,-0.45943835377693176,12.088972091674805,0.5599405169487
1744304521.336,-0.7322298884391785,12.82120132446289,0.06221561133861542
1744304521.336,-1.0145930051803589,13.797508239746094,-0.35893622040748596
1744304521.336,-1.5936768054962158,14.477093696594238,-0.382865309715271
1744304521.336,-1.742037057876587,15.204538345336914,-0.15314611792564392
1744304521.336,-1.742037057876587,15.884123802185059,0.11007377505302429
1744304521.336,-1.837753415107727,16.41534996032715,0.5168681740760803
1744304521.336,-2.28283429145813,16.640283584594727,0.8758043646812439
1744304521.336,-2.598698139190674,16.702499389648438,0.7609447836875916
1744304521.411,-3.0868513584136963,16.496707916259766,0.4307234585285187
1744304521.411,-4.034442901611328,16.070770263671875,-0.05264397710561752
1744304521.411,-4.642241477966309,15.941554069519043,-0.2010042816400528
1744304521.411,-5.2165398597717285,15.76447868347168,-0.34936457872390747
1744304521.411,-6.403421878814697,15.778836250305176,0.2536482512950897
1744304521.411,-7.370156764984131,15.735763549804688,-0.01914326474070549
1744304521.411,-8.451751708984375,14.740313529968262,-0.6412993669509888
1744304521.411,-10.52879524230957,12.864274024963379,-1.177310824394226
1744304521.486,-11.782679557800293,11.87360954284668,-1.3543859720230103
1744304521.486,-13.29021167755127,11.251453399658203,-0.952377438545227
1744304521.486,-13.787936210632324,10.892518043518066,-0.27757734060287476
1744304521.486,-12.55319595336914,10.576653480529785,0.3445787727832794
1744304521.486,-10.758514404296875,10.586225509643555,0.6269419193267822
1744304521.486,-9.978426933288574,10.394792556762695,0.4211518168449402
1744304521.486,-9.944926261901855,9.82528018951416,0.3732936680316925
1744304521.486,-9.38498592376709,9.696063995361328,0.07657305896282196
1744304521.561,-7.140437602996826,9.595561027526855,-1.770751953125
1744304521.561,13.127493858337402,13.01263427734375,-16.635496139526367
1744304521.561,20.847015380859375,22.0865421295166,2.2301902770996094
1744304521.561,-0.6365135312080383,15.276325225830078,0.22493335604667664
1744304521.561,0.923662543296814,12.792486190795898,-2.2397620677948
1744304521.561,-17.15236473083496,12.859488487243652,0.7513731122016907
1744304521.561,-10.141144752502441,15.467758178710938,0.25843408703804016
1744304521.561,6.1976318359375,13.428999900817871,-0.39722275733947754
1744304521.636,-0.9667348861694336,8.518753051757812,-4.532167911529541
1744304521.636,-1.2347406148910522,11.452458381652832,1.416601538658142
1744304521.636,0.43550926446914673,10.11242961883545,-1.0480937957763672
1744304521.636,0.13400284945964813,9.36584186553955,0.2536482512950897
1744304521.636,-1.6271774768829346,6.652284622192383,-1.8664683103561401
1744304521.636,0.8710185289382935,6.575711250305176,-3.723365068435669
1744304521.636,0.3302213251590729,8.461322784423828,-0.5790837407112122
1744304521.636,-1.5362470149993896,8.762829780578613,-2.024400234222412
1744304521.711,0.5790837407112122,10.949947357177734,-2.0052568912506104
1744304521.711,0.6604426503181458,11.088736534118652,-2.0626866817474365
1744304521.711,0.5120823383331299,10.107644081115723,-2.0914015769958496
1744304521.711,0.15793193876743317,9.944926261901855,-2.234976053237915
1744304521.711,0.5934411883354187,9.619490623474121,-2.4503378868103027
1744304521.711,1.2203831672668457,10.035856246948242,-2.852346420288086
1744304521.711,1.0002355575561523,10.433079719543457,-2.8619179725646973
1744304521.711,0.04307234659790993,9.614705085754395,-3.16821026802063
1744304521.786,0.5120823383331299,9.002120018005371,-2.9337053298950195
1744304521.786,0.923662543296814,8.49003791809082,-3.378786325454712
1744304521.786,1.1150951385498047,9.442415237426758,-2.8858470916748047
1744304521.786,0.5838695764541626,10.098072052001953,-2.5891265869140625
1744304521.786,0.8231604099273682,9.796566009521484,-2.6513421535491943
1744304521.786,1.2347406148910522,9.0978364944458,-3.182567834854126
1744304521.786,1.4979604482650757,8.791543960571289,-3.4314301013946533
1744304521.786,1.1677391529083252,9.121766090393066,-3.2304258346557617
1744304521.861,0.5838695764541626,9.284482955932617,-3.302213191986084
1744304521.861,0.3110780417919159,9.21748161315918,-3.4745025634765625
1744304521.861,0.47858160734176636,9.126551628112793,-3.316570520401001
1744304521.861,0.5551546812057495,9.164837837219238,-3.0820655822753906
1744304521.861,0.7130866050720215,9.317984580993652,-3.019850015640259
1744304521.861,1.148595929145813,9.404129028320312,-3.0054924488067627
1744304521.861,0.7992312908172607,9.4950590133667,-3.0389933586120605
1744304521.861,0.48815324902534485,9.64341926574707,-2.9049904346466064
1744304521.936,0.12443122267723083,9.782208442687988,-2.8858470916748047
1744304521.936,-0.01914326474070549,9.9832124710083,-2.6465563774108887
1744304521.936,-0.7226582169532776,9.944926261901855,-2.5412683486938477
1744304521.936,-0.4546525478363037,9.767850875854492,-2.5747690200805664
1744304521.936,-0.06700142472982407,9.753493309020996,-2.7566301822662354
1744304521.936,-0.0047858161851763725,9.777422904968262,-2.6561279296875
1744304521.936,-0.27757734060287476,9.629061698913574,-2.598698139190674
1744304521.936,-0.047858163714408875,9.514202117919922,-2.747058391571045
1744304522.011,-0.0047858161851763725,9.466344833374023,-2.8475606441497803
1744304522.011,-0.05264397710561752,9.681706428527832,-2.732701063156128
1744304522.011,0.028714897111058235,9.830066680908203,-2.493410348892212
1744304522.011,-0.028714897111058235,9.801351547241211,-2.416837215423584
1744304522.011,0.12921704351902008,9.46155834197998,-2.340264081954956
1744304522.011,0.04307234659790993,9.116979598999023,-2.718343496322632
1744304522.011,-0.05264397710561752,9.136122703552246,-3.091637372970581
1744304522.011,0.2536482512950897,10.021498680114746,-3.02942156791687
1744304522.086,-0.047858163714408875,10.179430961608887,-2.732701063156128
1744304522.086,-0.32543548941612244,9.782208442687988,-2.3976938724517822
1744304522.086,0.01914326474070549,9.408914566040039,-2.7231295108795166
1744304522.086,0.07657305896282196,9.509416580200195,-3.0677082538604736
1744304522.086,0.29672059416770935,9.873138427734375,-2.5556259155273438
1744304522.086,0.32543548941612244,9.518988609313965,-2.732701063156128
1744304522.086,0.29672059416770935,8.858545303344727,-3.196925163269043
1744304522.086,0.6365135312080383,8.963833808898926,-3.393143653869629
1744304522.161,0.363722026348114,9.294054985046387,-3.225640058517456
1744304522.161,-0.06700142472982407,9.447200775146484,-3.000706672668457
1744304522.161,-0.4020085632801056,9.55727481842041,-2.8714897632598877
1744304522.161,-0.3206496834754944,9.657776832580566,-2.9528486728668213
1744304522.161,-0.181861013174057,9.753493309020996,-2.9049904346466064
1744304522.161,-0.13400284945964813,9.777422904968262,-2.579555034637451
1744304522.161,-0.1722893863916397,9.437629699707031,-2.584340810775757
1744304522.161,-0.06221561133861542,9.246196746826172,-2.804488182067871
1744304522.236,-0.11485958844423294,9.576417922973633,-2.4407663345336914
1744304522.236,-0.3350071310997009,9.562060356140137,-2.4407663345336914
1744304522.236,-0.15314611792564392,9.65299129486084,-2.388122320175171
1744304522.236,-0.14357449114322662,9.581204414367676,-2.340264081954956
1744304522.236,-0.03828652948141098,9.657776832580566,-2.4981961250305176
1744304522.236,-0.06700142472982407,9.648205757141113,-2.459909439086914
1744304522.236,-0.16750356554985046,9.47113037109375,-2.598698139190674
1744304522.236,-0.23450499773025513,9.451987266540527,-2.5891265869140625
1744304522.311,-0.22971917688846588,9.700849533081055,-2.5891265869140625
1744304522.311,-0.2919347882270813,9.81092357635498,-2.61305570602417
1744304522.311,-0.4450809061527252,9.801351547241211,-2.368978977203369
1744304522.311,-0.28714898228645325,9.820494651794434,-2.3354783058166504
1744304522.311,-0.3302213251590729,9.763065338134766,-2.388122320175171
1744304522.311,0,10.021498680114746,-2.2110471725463867
1744304522.311,-0.08135887235403061,9.868352890014648,-2.3163349628448486
1744304522.311,0.2010042816400528,9.700849533081055,-2.234976053237915
1744304522.386,0.3015064299106598,9.442415237426758,-2.4072654247283936
1744304522.386,0.2105759084224701,9.533346176147461,-2.431194543838501
1744304522.386,0.1005021408200264,9.46155834197998,-2.4503378868103027
1744304522.386,0.19621846079826355,9.428057670593262,-2.536482572555542
1744304522.386,0.09571632742881775,9.341913223266602,-2.713557720184326
1744304522.386,0.15314611792564392,9.514202117919922,-2.641770601272583
1744304522.386,0.2010042816400528,9.691277503967285,-2.6609137058258057
1744304522.386,0.09571632742881775,9.786993980407715,-2.4838385581970215
1744304522.461,0.17707519233226776,9.629061698913574,-2.6034839153289795
1744304522.461,0.382865309715271,9.528559684753418,-2.627413034439087
1744304522.461,0.24886244535446167,9.672134399414062,-2.6034839153289795
1744304522.461,0.0047858161851763725,9.667348861694336,-2.3306925296783447
1744304522.461,-0.08614469319581985,9.64341926574707,-2.177546262741089
1744304522.461,-0.03828652948141098,9.46155834197998,-2.4359803199768066
1744304522.461,0.09571632742881775,9.499845504760742,-2.3354783058166504
1744304522.461,0.09571632742881775,9.619490623474121,-2.3450498580932617
1744304522.536,-0.03350071236491203,9.672134399414062,-2.220618724822998
1744304522.536,-0.014357448555529118,9.681706428527832,-2.1057591438293457
1744304522.536,-0.22493335604667664,9.65299129486084,-2.014828681945801
1744304522.536,-0.23450499773025513,9.777422904968262,-1.9861136674880981
1744304522.536,-0.28714898228645325,9.763065338134766,-1.8999689817428589
1744304522.536,-0.22493335604667664,9.777422904968262,-1.9908995628356934
1744304522.536,-0.24407662451267242,9.801351547241211,-2.1105449199676514
1744304522.536,-0.20579010248184204,9.858781814575195,-2.014828681945801
1744304522.611,-0.22493335604667664,9.691277503967285,-2.1201164722442627
1744304522.611,-0.0909305065870285,9.691277503967285,-2.1966896057128906
1744304522.611,-0.11485958844423294,9.562060356140137,-2.340264081954956
1744304522.611,-0.15793193876743317,9.585989952087402,-2.3306925296783447
1744304522.611,-0.06221561133861542,9.552489280700684,-2.3976938724517822
1744304522.611,-0.04307234659790993,9.691277503967285,-2.3976938724517822
1744304522.611,-0.03828652948141098,9.74870777130127,-2.4216229915618896
1744304522.611,0.028714897111058235,9.691277503967285,-2.368978977203369
1744304522.686,-0.0047858161851763725,9.763065338134766,-2.3211207389831543
1744304522.686,0.01914326474070549,9.705635070800781,-2.3306925296783447
1744304522.686,-0.023929081857204437,9.676919937133789,-2.278048515319824
1744304522.686,-0.06700142472982407,9.672134399414062,-2.3833365440368652
1744304522.686,-0.11964540183544159,9.719992637634277,-2.3450498580932617
1744304522.686,-0.04307234659790993,9.705635070800781,-2.3354783058166504
1744304522.686,-0.23450499773025513,9.595561027526855,-2.28283429145813
1744304522.686,-0.2105759084224701,9.672134399414062,-2.2876200675964355
1744304522.761,-0.22014755010604858,9.638633728027344,-2.402479648590088
1744304522.761,-0.15314611792564392,9.552489280700684,-2.4072654247283936
1744304522.761,-0.22014755010604858,9.585989952087402,-2.431194543838501
1744304522.761,-0.22971917688846588,9.638633728027344,-2.3641932010650635
1744304522.761,-0.28714898228645325,9.638633728027344,-2.3498356342315674
1744304522.761,-0.28714898228645325,9.609918594360352,-2.340264081954956
1744304522.761,-0.11964540183544159,9.65299129486084,-2.325906753540039
1744304522.761,-0.014357448555529118,9.624276161193848,-2.3163349628448486
1744304522.836,-0.18664683401584625,9.657776832580566,-2.292405843734741
1744304522.836,-0.2632198929786682,9.724778175354004,-2.292405843734741
1744304522.836,-0.24407662451267242,9.777422904968262,-2.191903829574585
1744304522.836,-0.3110780417919159,9.64341926574707,-2.3450498580932617
1744304522.836,-0.21536172926425934,9.691277503967285,-2.3067634105682373
1744304522.836,-0.1914326548576355,9.772636413574219,-2.292405843734741
1744304522.836,-0.22971917688846588,9.648205757141113,-2.268476963043213
1744304522.836,-0.15314611792564392,9.605133056640625,-2.354621648788452
1744304522.911,-0.181861013174057,9.65299129486084,-2.297191858291626
1744304522.911,-0.181861013174057,9.667348861694336,-2.4359803199768066
1744304522.911,-0.16750356554985046,9.648205757141113,-2.354621648788452
1744304522.911,-0.11485958844423294,9.672134399414062,-2.2254045009613037
1744304522.911,-0.1722893863916397,9.624276161193848,-2.311549186706543
1744304522.911,-0.13878867030143738,9.614705085754395,-2.3163349628448486
1744304522.911,-0.16271774470806122,9.719992637634277,-2.172760486602783
1744304522.911,-0.19621846079826355,9.729564666748047,-2.163188934326172
1744304522.986,-0.27757734060287476,9.657776832580566,-2.1679747104644775
1744304522.986,-0.2105759084224701,9.71520709991455,-2.1536173820495605
1744304522.986,-0.14836029708385468,9.638633728027344,-2.249333620071411
1744304522.986,-0.0047858161851763725,9.724778175354004,-2.3019776344299316
1744304522.986,-0.07657305896282196,9.710420608520508,-2.292405843734741
1744304522.986,-0.21536172926425934,9.648205757141113,-2.2445478439331055
1744304522.986,0.01914326474070549,9.696063995361328,-2.311549186706543
1744304522.986,-0.047858163714408875,9.705635070800781,-2.3354783058166504
1744304523.061,-0.09571632742881775,9.719992637634277,-2.416837215423584
1744304523.061,-0.07178724557161331,9.710420608520508,-2.4503378868103027
1744304523.061,-0.03350071236491203,9.667348861694336,-2.4694812297821045
1744304523.061,-0.14357449114322662,9.657776832580566,-2.3976938724517822
1744304523.061,-0.047858163714408875,9.600347518920898,-2.3641932010650635
1744304523.061,-0.009571632370352745,9.480701446533203,-2.388122320175171
1744304523.061,0.01914326474070549,9.571632385253906,-2.47426700592041
1744304523.061,0.04307234659790993,9.657776832580566,-2.431194543838501
1744304523.136,-0.047858163714408875,9.648205757141113,-2.445552110671997
1744304523.136,-0.01914326474070549,9.719992637634277,-2.3929080963134766
1744304523.136,-0.12921704351902008,9.609918594360352,-2.416837215423584
1744304523.136,-0.047858163714408875,9.600347518920898,-2.522125244140625
1744304523.136,-0.014357448555529118,9.66256332397461,-2.459909439086914
1744304523.136,-0.12443122267723083,9.705635070800781,-2.4264087677001953
1744304523.136,-0.07657305896282196,9.681706428527832,-2.445552110671997
1744304523.136,-0.1005021408200264,9.65299129486084,-2.4359803199768066
1744304523.211,-0.24886244535446167,9.590775489807129,-2.445552110671997
1744304523.211,-0.12443122267723083,9.638633728027344,-2.359407424926758
1744304523.211,-0.21536172926425934,9.66256332397461,-2.3833365440368652
1744304523.211,-0.24886244535446167,9.681706428527832,-2.3163349628448486
1744304523.211,-0.11007377505302429,9.729564666748047,-2.3354783058166504
1744304523.211,-0.1914326548576355,9.691277503967285,-2.4264087677001953
1744304523.211,-0.08135887235403061,9.724778175354004,-2.402479648590088
1744304523.211,-0.19621846079826355,9.743921279907227,-2.4407663345336914
1744304523.286,-0.13878867030143738,9.648205757141113,-2.47426700592041
1744304523.286,-0.03828652948141098,9.571632385253906,-2.3833365440368652
1744304523.286,-0.16271774470806122,9.528559684753418,-2.4838385581970215
1744304523.286,0.01914326474070549,9.633848190307617,-2.4264087677001953
1744304523.286,-0.12921704351902008,9.590775489807129,-2.488624334335327
1744304523.286,-0.14357449114322662,9.581204414367676,-2.5316967964172363
1744304523.286,-0.181861013174057,9.499845504760742,-2.6226272583007812
1744304523.286,-0.3015064299106598,9.514202117919922,-2.670485496520996
1744304523.361,-0.30629223585128784,9.624276161193848,-2.7231295108795166
1744304523.361,-0.15314611792564392,9.657776832580566,-2.5699832439422607
1744304523.361,-0.2632198929786682,9.590775489807129,-2.6609137058258057
1744304523.361,-0.09571632742881775,9.700849533081055,-2.4694812297821045
1744304523.361,-0.15793193876743317,9.619490623474121,-2.584340810775757
1744304523.361,-0.11007377505302429,9.719992637634277,-2.5029819011688232
1744304523.361,-0.14836029708385468,9.523774147033691,-2.6321988105773926
1744304523.361,0.05742979422211647,9.600347518920898,-2.6034839153289795
1744304523.436,0.08135887235403061,9.499845504760742,-2.7709875106811523
1744304523.436,-0.181861013174057,9.562060356140137,-2.761415958404541
1744304523.436,-0.2105759084224701,9.66256332397461,-2.4981961250305176
1744304523.436,-0.22493335604667664,9.571632385253906,-2.641770601272583
1744304523.436,-0.1914326548576355,9.629061698913574,-2.641770601272583
1744304523.436,-0.07657305896282196,9.700849533081055,-2.5747690200805664
1744304523.436,-0.3302213251590729,9.64341926574707,-2.5460541248321533
1744304523.436,-0.24407662451267242,9.56684684753418,-2.5125534534454346
1744304523.511,-0.13878867030143738,9.638633728027344,-2.464695453643799
1744304523.511,-0.22014755010604858,9.571632385253906,-2.5604116916656494
1744304523.511,-0.22493335604667664,9.629061698913574,-2.584340810775757
1744304523.511,-0.11485958844423294,9.672134399414062,-2.5891265869140625
1744304523.511,-0.21536172926425934,9.571632385253906,-2.6609137058258057
1744304523.511,-0.12443122267723083,9.609918594360352,-2.5604116916656494
1744304523.511,-0.24886244535446167,9.614705085754395,-2.7805593013763428
1744304523.511,-0.25843408703804016,9.56684684753418,-2.5269110202789307
1744304523.586,-0.2105759084224701,9.547703742980957,-2.641770601272583
1744304523.586,-0.339792937040329,9.614705085754395,-2.627413034439087
1744304523.586,-0.38765111565589905,9.614705085754395,-2.431194543838501
1744304523.586,-0.5264397859573364,9.672134399414062,-2.4838385581970215
1744304523.586,-0.45943835377693176,9.66256332397461,-2.4359803199768066
1744304523.586,-0.4020085632801056,9.624276161193848,-2.593912363052368
1744304523.586,-0.32543548941612244,9.71520709991455,-2.4981961250305176
1744304523.586,-0.569512128829956,9.648205757141113,-2.5747690200805664
1744304523.661,-0.4546525478363037,9.763065338134766,-2.388122320175171
1744304523.661,-0.34936457872390747,9.681706428527832,-2.3354783058166504
1744304523.661,-0.38765111565589905,9.39934253692627,-2.5316967964172363
1744304523.661,-0.18664683401584625,9.595561027526855,-2.5604116916656494
1744304523.661,-0.4020085632801056,9.65299129486084,-2.627413034439087
1744304523.661,-0.46900999546051025,9.657776832580566,-2.579555034637451
1744304523.661,-0.5168681740760803,9.528559684753418,-2.7997024059295654
1744304523.661,-0.24407662451267242,9.619490623474121,-2.7805593013763428
1744304523.736,-0.23929080367088318,9.542917251586914,-2.8284173011779785
1744304523.736,-0.08135887235403061,9.729564666748047,-2.6465563774108887
1744304523.736,-0.32543548941612244,9.523774147033691,-2.7374868392944336
1744304523.736,-0.181861013174057,9.523774147033691,-2.6465563774108887
1744304523.736,0.023929081857204437,9.605133056640625,-2.732701063156128
1744304523.736,-0.08614469319581985,9.595561027526855,-2.6465563774108887
1744304523.736,-0.2010042816400528,9.466344833374023,-2.6752712726593018
1744304523.736,-0.12443122267723083,9.605133056640625,-2.5412683486938477
1744304523.811,-0.12443122267723083,9.777422904968262,-2.593912363052368
1744304523.811,-0.22014755010604858,9.667348861694336,-2.641770601272583
1744304523.811,-0.24407662451267242,9.657776832580566,-2.598698139190674
1744304523.811,-0.4115802049636841,9.734350204467773,-2.565197467803955
1744304523.811,-0.4211518168449402,9.638633728027344,-2.5316967964172363
1744304523.811,-0.3206496834754944,9.614705085754395,-2.4981961250305176
1744304523.811,-0.1914326548576355,9.552489280700684,-2.5699832439422607
1744304523.811,-0.19621846079826355,9.504631042480469,-2.4216229915618896
1744304523.886,-0.35893622040748596,9.480701446533203,-2.4551236629486084
1744304523.886,-0.382865309715271,9.65299129486084,-2.354621648788452
1744304523.886,-0.4211518168449402,9.562060356140137,-2.368978977203369
1744304523.886,-0.22014755010604858,9.585989952087402,-2.4694812297821045
1744304523.886,-0.21536172926425934,9.595561027526855,-2.416837215423584
1744304523.886,-0.27757734060287476,9.657776832580566,-2.4838385581970215
1744304523.886,-0.4020085632801056,9.767850875854492,-2.479052782058716
1744304523.886,-0.4737958014011383,9.815709114074707,-2.507767677307129
1744304523.961,-0.4307234585285187,9.772636413574219,-2.47426700592041
1744304523.961,-0.4929390549659729,9.605133056640625,-2.507767677307129
1744304523.961,-0.31586387753486633,9.581204414367676,-2.5699832439422607
1744304523.961,-0.4211518168449402,9.605133056640625,-2.3498356342315674
1744304523.961,-0.4929390549659729,9.303627014160156,-2.584340810775757
1744304523.961,-0.181861013174057,9.490273475646973,-2.4503378868103027
1744304523.961,-0.4929390549659729,9.605133056640625,-2.3641932010650635
1744304523.961,-0.4546525478363037,9.638633728027344,-2.3976938724517822
1744304524.036,-0.4546525478363037,9.56684684753418,-2.507767677307129
1744304524.036,-0.43550926446914673,9.676919937133789,-2.4216229915618896
1744304524.036,-0.40679436922073364,9.82528018951416,-2.3641932010650635
1744304524.036,-0.5455830693244934,9.782208442687988,-2.4407663345336914
1744304524.036,-0.382865309715271,9.978426933288574,-2.354621648788452
1744304524.036,-0.521653950214386,9.71520709991455,-2.479052782058716
1744304524.036,-0.339792937040329,9.55727481842041,-2.402479648590088
1744304524.036,-0.2727915346622467,9.600347518920898,-2.627413034439087
1744304524.111,-0.4211518168449402,9.705635070800781,-2.5412683486938477
1744304524.111,-0.2105759084224701,9.65299129486084,-2.4359803199768066
1744304524.111,-0.14836029708385468,9.523774147033691,-2.6321988105773926
1744304524.111,-0.16271774470806122,9.394556999206543,-2.6944146156311035
1744304524.111,-0.3350071310997009,9.47113037109375,-2.6034839153289795
1744304524.111,-0.31586387753486633,9.475915908813477,-2.584340810775757
1744304524.111,-0.2823631465435028,9.533346176147461,-2.464695453643799
1744304524.111,-0.1722893863916397,9.56684684753418,-2.488624334335327
1744304524.186,-0.24407662451267242,9.4950590133667,-2.479052782058716
1744304524.186,-0.3350071310997009,9.562060356140137,-2.5556259155273438
1744304524.186,-0.4546525478363037,9.66256332397461,-2.550840139389038
1744304524.186,-0.4546525478363037,9.676919937133789,-2.4981961250305176
1744304524.186,-0.49772489070892334,9.696063995361328,-2.5891265869140625
1744304524.186,-0.521653950214386,9.65299129486084,-2.579555034637451
1744304524.186,-0.521653950214386,9.7391357421875,-2.6178414821624756
1744304524.186,-0.540797233581543,9.547703742980957,-2.699200391769409
1744304524.261,-0.5742979645729065,9.734350204467773,-2.5412683486938477
1744304524.261,-0.5647262930870056,9.705635070800781,-2.6321988105773926
1744304524.261,-0.4929390549659729,9.648205757141113,-2.593912363052368
1744304524.261,-0.5072965025901794,9.696063995361328,-2.4838385581970215
1744304524.261,-0.47858160734176636,9.638633728027344,-2.565197467803955
1744304524.261,-0.44029510021209717,9.729564666748047,-2.464695453643799
1744304524.261,-0.4737958014011383,9.676919937133789,-2.354621648788452
1744304524.261,-0.7992312908172607,9.423272132873535,-2.550840139389038
1744304524.335,-0.6460852026939392,9.518988609313965,-2.4981961250305176
1744304524.335,-0.5264397859573364,9.56684684753418,-2.5029819011688232
1744304524.335,-0.6030128598213196,9.408914566040039,-2.6513421535491943
1744304524.335,-0.35893622040748596,9.504631042480469,-2.254119396209717
1744304524.335,-0.6030128598213196,9.346698760986328,-2.5029819011688232
1744304524.335,-0.32543548941612244,9.64341926574707,-2.311549186706543
1744304524.335,-0.38765111565589905,9.700849533081055,-2.493410348892212
1744304524.335,-0.4546525478363037,9.696063995361328,-2.47426700592041
1744304524.409,-0.44986671209335327,9.758278846740723,-2.4072654247283936
1744304524.409,-0.6269419193267822,9.691277503967285,-2.550840139389038
1744304524.409,-0.5503688454627991,9.777422904968262,-2.479052782058716
1744304524.409,-0.5838695764541626,9.605133056640625,-2.479052782058716
1744304524.409,-0.5503688454627991,9.56684684753418,-2.670485496520996
1744304524.409,-0.5838695764541626,9.65299129486084,-2.6369848251342773
1744304524.409,-0.49772489070892334,9.619490623474121,-2.6561279296875
1744304524.409,-0.4737958014011383,9.4950590133667,-2.6896286010742188
1744304524.483,-0.44029510021209717,9.533346176147461,-2.6226272583007812
1744304524.483,-0.569512128829956,9.585989952087402,-2.61305570602417
1744304524.483,-0.40679436922073364,9.576417922973633,-2.6226272583007812
1744304524.483,-0.35893622040748596,9.585989952087402,-2.593912363052368
1744304524.483,-0.4211518168449402,9.66256332397461,-2.5891265869140625
1744304524.483,-0.5264397859573364,9.619490623474121,-2.6034839153289795
1744304524.483,-0.5072965025901794,9.667348861694336,-2.550840139389038
1744304524.483,-0.5025107264518738,9.700849533081055,-2.579555034637451
1744304524.557,-0.46900999546051025,9.571632385253906,-2.627413034439087
1744304524.557,-0.5838695764541626,9.562060356140137,-2.6369848251342773
1744304524.557,-0.6939433217048645,9.657776832580566,-2.5460541248321533
1744304524.557,-0.8231604099273682,9.504631042480469,-2.579555034637451
1744304524.557,-0.765730619430542,9.581204414367676,-2.4981961250305176
1744304524.557,-0.8327320218086243,9.581204414367676,-2.536482572555542
1744304524.557,-0.923662543296814,9.547703742980957,-2.4838385581970215
1744304524.557,-0.6939433217048645,9.619490623474121,-2.3641932010650635
1744304524.631,-0.7513731122016907,9.547703742980957,-2.4216229915618896
1744304524.631,-0.7513731122016907,9.600347518920898,-2.28283429145813
1744304524.631,-0.7370156645774841,9.667348861694336,-2.373764753341675
1744304524.631,-0.7370156645774841,9.638633728027344,-2.431194543838501
1744304524.631,-0.7513731122016907,9.686491966247559,-2.4551236629486084
1744304524.631,-0.7130866050720215,9.657776832580566,-2.493410348892212
1744304524.631,-0.7226582169532776,9.633848190307617,-2.6609137058258057
1744304524.631,-0.540797233581543,9.686491966247559,-2.598698139190674
1744304524.706,-0.521653950214386,9.791779518127441,-2.61305570602417
1744304524.706,-0.8805902004241943,9.538131713867188,-2.1966896057128906
1744304524.706,-1.0098072290420532,9.370628356933594,-2.98634934425354
1744304524.706,-0.023929081857204437,10.155502319335938,-2.368978977203369
1744304524.706,-1.6654640436172485,9.758278846740723,-2.278048515319824
1744304524.706,-0.1722893863916397,9.538131713867188,-2.172760486602783
1744304524.706,-0.9715206623077393,9.298840522766113,-2.7662017345428467
1744304524.706,-0.32543548941612244,9.576417922973633,-2.5173392295837402
1744304524.78,-0.7513731122016907,9.801351547241211,-2.177546262741089
1744304524.78,-0.9571632146835327,9.418486595153809,-2.713557720184326
1744304524.78,-0.7513731122016907,9.590775489807129,-2.292405843734741
1744304524.78,-1.019378900527954,9.303627014160156,-2.4694812297821045
1744304524.78,-0.7513731122016907,9.456772804260254,-3.02942156791687
1744304524.78,-0.47858160734176636,10.17464542388916,-1.9621846675872803
1744304524.78,-1.3926725387573242,9.361056327819824,-2.703986167907715
1744304524.78,-0.3302213251590729,9.691277503967285,-2.1966896057128906
1744304524.854,-1.1198810338974,9.46155834197998,-2.703986167907715
1744304524.854,-0.5599405169487,9.777422904968262,-2.2732627391815186
1744304524.854,-0.9810923337936401,9.504631042480469,-2.5173392295837402
1744304524.854,-0.8662327527999878,9.729564666748047,-2.4838385581970215
1744304524.854,-0.9140908718109131,9.657776832580566,-2.2445478439331055
1744304524.854,-1.019378900527954,9.65299129486084,-2.3354783058166504
1744304524.854,-0.8949476480484009,9.638633728027344,-2.6034839153289795
1744304524.854,-0.8040171265602112,9.734350204467773,-2.4838385581970215
1744304524.928,-0.9428057670593262,9.681706428527832,-2.4838385581970215
1744304524.928,-0.8327320218086243,9.657776832580566,-2.416837215423584
1744304524.928,-0.9571632146835327,9.65299129486084,-2.479052782058716
1744304524.928,-0.8327320218086243,9.562060356140137,-2.4694812297821045
1744304524.928,-0.7130866050720215,9.4950590133667,-2.593912363052368
1744304524.928,-0.7370156645774841,9.475915908813477,-2.61305570602417
1744304524.928,-0.727444052696228,9.437629699707031,-2.4072654247283936
1744304524.928,-0.9093050956726074,9.408914566040039,-2.4407663345336914
1744304525.002,-0.727444052696228,9.571632385253906,-2.522125244140625
1744304525.002,-0.6556568145751953,9.65299129486084,-2.4359803199768066
1744304525.002,-0.7753022313117981,9.538131713867188,-2.3163349628448486
1744304525.002,-0.708300769329071,9.657776832580566,-2.311549186706543
1744304525.002,-0.8662327527999878,9.686491966247559,-2.268476963043213
1744304525.002,-0.8135887384414673,9.648205757141113,-2.4072654247283936
1744304525.002,-0.8040171265602112,9.624276161193848,-2.431194543838501
1744304525.002,-0.8710185289382935,9.590775489807129,-2.4838385581970215
1744304525.076,-0.7992312908172607,9.719992637634277,-2.4407663345336914
1744304525.076,-0.7896596789360046,9.648205757141113,-2.507767677307129
1744304525.076,-0.6891575455665588,9.595561027526855,-2.5699832439422607
1744304525.076,-0.6700142621994019,9.609918594360352,-2.464695453643799
1744304525.076,-0.6269419193267822,9.624276161193848,-2.4551236629486084
1744304525.076,-0.708300769329071,9.614705085754395,-2.507767677307129
1744304525.076,-0.7178724408149719,9.633848190307617,-2.536482572555542
1744304525.076,-0.6987291574478149,9.696063995361328,-2.598698139190674
1744304525.15,-0.8614469170570374,9.64341926574707,-2.4264087677001953
1744304525.15,-0.8662327527999878,9.605133056640625,-2.5460541248321533
1744304525.15,-0.7513731122016907,9.624276161193848,-2.565197467803955
1744304525.15,-0.6843717098236084,9.562060356140137,-2.5747690200805664
1744304525.15,-0.6556568145751953,9.595561027526855,-2.479052782058716
1744304525.15,-0.7896596789360046,9.609918594360352,-2.5556259155273438
1744304525.15,-0.6748000979423523,9.55727481842041,-2.416837215423584
1744304525.15,-0.6508709788322449,9.46155834197998,-2.5412683486938477
1744304525.224,-0.679585874080658,9.466344833374023,-2.61305570602417
1744304525.224,-0.7035149931907654,9.56684684753418,-2.5412683486938477
1744304525.224,-0.8997334241867065,9.638633728027344,-2.5316967964172363
1744304525.224,-0.8997334241867065,9.585989952087402,-2.6034839153289795
1744304525.224,-0.8423036336898804,9.614705085754395,-2.5699832439422607
1744304525.224,-0.6987291574478149,9.763065338134766,-2.3976938724517822
1744304525.224,-0.8949476480484009,9.629061698913574,-2.507767677307129
1744304525.224,-0.7800880670547485,9.629061698913574,-2.431194543838501
1744304525.298,-0.7800880670547485,9.648205757141113,-2.4503378868103027
1744304525.298,-0.7178724408149719,9.514202117919922,-2.4503378868103027
1744304525.298,-0.6891575455665588,9.743921279907227,-2.373764753341675
1744304525.298,-0.7944455146789551,9.624276161193848,-2.522125244140625
1744304525.298,-0.7418015003204346,9.681706428527832,-2.402479648590088
1744304525.298,-0.679585874080658,9.64341926574707,-2.4838385581970215
1744304525.298,-0.6843717098236084,9.700849533081055,-2.4359803199768066
1744304525.298,-0.7513731122016907,9.672134399414062,-2.4981961250305176
1744304525.372,-0.923662543296814,9.56684684753418,-2.6082699298858643
1744304525.372,-0.7944455146789551,9.600347518920898,-2.4981961250305176
1744304525.372,-0.8135887384414673,9.56684684753418,-2.431194543838501
1744304525.372,-0.8040171265602112,9.504631042480469,-2.5029819011688232
1744304525.372,-0.8183745741844177,9.437629699707031,-2.479052782058716
1744304525.372,-0.6508709788322449,9.518988609313965,-2.3929080963134766
1744304525.372,-0.7418015003204346,9.518988609313965,-2.4072654247283936
1744304525.372,-0.7705163955688477,9.533346176147461,-2.4359803199768066
1744304525.446,-0.7226582169532776,9.562060356140137,-2.5173392295837402
1744304525.446,-0.5647262930870056,9.605133056640625,-2.459909439086914
1744304525.446,-0.6221560835838318,9.65299129486084,-2.5699832439422607
1744304525.446,-0.5838695764541626,9.782208442687988,-2.431194543838501
1744304525.446,-0.7322298884391785,9.71520709991455,-2.488624334335327
1744304525.446,-0.7753022313117981,9.629061698913574,-2.6034839153289795
1744304525.446,-0.746587336063385,9.65299129486084,-2.6034839153289795
1744304525.446,-0.765730619430542,9.66256332397461,-2.5269110202789307
1744304525.52,-0.7178724408149719,9.729564666748047,-2.550840139389038
1744304525.52,-0.7035149931907654,9.576417922973633,-2.4694812297821045
1744304525.52,-0.679585874080658,9.4950590133667,-2.47426700592041
1744304525.52,-0.6030128598213196,9.585989952087402,-2.431194543838501
1744304525.52,-0.6077986359596252,9.609918594360352,-2.402479648590088
1744304525.52,-0.6987291574478149,9.609918594360352,-2.507767677307129
1744304525.52,-0.7418015003204346,9.676919937133789,-2.4838385581970215
1744304525.52,-0.7130866050720215,9.633848190307617,-2.5604116916656494
1744304525.594,-0.7178724408149719,9.56684684753418,-2.598698139190674
1744304525.594,-0.7418015003204346,9.552489280700684,-2.5173392295837402
1744304525.594,-0.7753022313117981,9.614705085754395,-2.5604116916656494
1744304525.594,-0.6748000979423523,9.590775489807129,-2.493410348892212
1744304525.594,-0.6939433217048645,9.585989952087402,-2.5269110202789307
1744304525.594,-0.7753022313117981,9.518988609313965,-2.593912363052368
1744304525.594,-0.6077986359596252,9.576417922973633,-2.4503378868103027
1744304525.594,-0.6556568145751953,9.538131713867188,-2.5316967964172363
1744304525.668,-0.765730619430542,9.428057670593262,-2.5173392295837402
1744304525.668,-0.8040171265602112,9.56684684753418,-2.9480626583099365
1744304525.668,-0.44986671209335327,10.021498680114746,-2.4838385581970215
1744304525.668,-1.3543859720230103,9.729564666748047,-2.4216229915618896
1744304525.668,-0.5838695764541626,9.619490623474121,-2.3306925296783447
1744304525.668,-0.8088029623031616,9.571632385253906,-2.598698139190674
1744304525.668,-0.5312256217002869,9.772636413574219,-2.4120514392852783
1744304525.668,-0.8279461860656738,9.705635070800781,-2.311549186706543
1744304525.742,-0.6460852026939392,9.404129028320312,-2.4981961250305176
1744304525.742,-0.7322298884391785,9.428057670593262,-2.28283429145813
1744304525.742,-0.9906639456748962,9.270126342773438,-2.5556259155273438
1744304525.742,-0.6843717098236084,9.609918594360352,-2.713557720184326
1744304525.742,-0.5934411883354187,10.045428276062012,-2.2732627391815186
1744304525.742,-1.0528795719146729,9.499845504760742,-2.3498356342315674
1744304525.742,-0.5168681740760803,9.418486595153809,-2.2014753818511963
1744304525.742,-0.8375178575515747,9.585989952087402,-2.7374868392944336
1744304525.816,-0.6269419193267822,9.944926261901855,-2.4359803199768066
1744304525.816,-1.0002355575561523,9.55727481842041,-2.402479648590088
1744304525.816,-0.8279461860656738,9.423272132873535,-2.4407663345336914
1744304525.816,-0.7705163955688477,9.624276161193848,-2.416837215423584
1744304525.816,-0.9284483194351196,9.729564666748047,-2.445552110671997
1744304525.816,-0.7992312908172607,9.719992637634277,-2.402479648590088
1744304525.816,-0.7370156645774841,9.614705085754395,-2.3354783058166504
1744304525.816,-0.7896596789360046,9.480701446533203,-2.4407663345336914
1744304525.89,-0.7896596789360046,9.55727481842041,-2.3833365440368652
1744304525.89,-0.904519259929657,9.629061698913574,-2.3211207389831543
1744304525.89,-0.9284483194351196,9.638633728027344,-2.3067634105682373
1744304525.89,-0.8901618123054504,9.533346176147461,-2.4216229915618896
1744304525.89,-0.9428057670593262,9.667348861694336,-2.3067634105682373
1744304525.89,-0.9715206623077393,9.638633728027344,-2.249333620071411
1744304525.89,-1.0337363481521606,9.533346176147461,-2.445552110671997
1744304525.89,-0.8327320218086243,9.619490623474121,-2.4264087677001953
1744304525.964,-0.8375178575515747,9.619490623474121,-2.431194543838501
1744304525.964,-0.746587336063385,9.614705085754395,-2.4551236629486084
1744304525.964,-0.8040171265602112,9.609918594360352,-2.5699832439422607
1744304525.964,-0.7561589479446411,9.633848190307617,-2.4838385581970215
1744304525.964,-0.8135887384414673,9.614705085754395,-2.536482572555542
1744304525.964,-0.727444052696228,9.609918594360352,-2.507767677307129
1744304525.964,-0.8088029623031616,9.590775489807129,-2.5125534534454346
1744304525.964,-0.8088029623031616,9.605133056640625,-2.522125244140625
1744304526.039,-0.6843717098236084,9.499845504760742,-2.593912363052368
1744304526.039,-0.7513731122016907,9.538131713867188,-2.6321988105773926
1744304526.039,-0.8279461860656738,9.619490623474121,-2.61305570602417
1744304526.039,-0.7992312908172607,9.64341926574707,-2.5125534534454346
1744304526.039,-0.8327320218086243,9.66256332397461,-2.4981961250305176
1744304526.039,-0.7896596789360046,9.509416580200195,-2.4120514392852783
1744304526.039,-0.8758043646812439,9.562060356140137,-2.3354783058166504
1744304526.039,-0.8135887384414673,9.672134399414062,-2.4072654247283936
1744304526.113,-0.9380199909210205,9.696063995361328,-2.4072654247283936
1744304526.113,-1.0145930051803589,9.672134399414062,-2.220618724822998
1744304526.113,-0.9140908718109131,9.600347518920898,-2.368978977203369
1744304526.113,-0.9284483194351196,9.609918594360352,-2.3976938724517822
1744304526.113,-0.952377438545227,9.657776832580566,-2.3354783058166504
1744304526.113,-0.9858781099319458,9.609918594360352,-2.459909439086914
1744304526.113,-0.923662543296814,9.581204414367676,-2.402479648590088
1744304526.113,-0.9140908718109131,9.600347518920898,-2.4981961250305176
1744304526.187,-0.8805902004241943,9.581204414367676,-2.479052782058716
1744304526.187,-0.8710185289382935,9.547703742980957,-2.5556259155273438
1744304526.187,-0.8183745741844177,9.423272132873535,-2.550840139389038
1744304526.187,-0.8088029623031616,9.4950590133667,-2.5412683486938477
1744304526.187,-0.8040171265602112,9.55727481842041,-2.5173392295837402
1744304526.187,-0.9093050956726074,9.614705085754395,-2.479052782058716
1744304526.187,-0.8758043646812439,9.55727481842041,-2.507767677307129
1744304526.187,-0.8183745741844177,9.523774147033691,-2.507767677307129
1744304526.261,-0.6987291574478149,9.538131713867188,-2.5412683486938477
1744304526.261,-0.8518753051757812,9.600347518920898,-2.6034839153289795
1744304526.261,-0.8470894694328308,9.686491966247559,-2.4551236629486084
1744304526.261,-0.8949476480484009,9.633848190307617,-2.5460541248321533
1744304526.261,-0.8949476480484009,9.71520709991455,-2.5460541248321533
1744304526.261,-0.952377438545227,9.710420608520508,-2.5173392295837402
1744304526.261,-0.9858781099319458,9.638633728027344,-2.4359803199768066
1744304526.261,-1.0480937957763672,9.595561027526855,-2.416837215423584
1744304526.335,-1.0863802433013916,9.562060356140137,-2.402479648590088
1744304526.335,-1.081594467163086,9.442415237426758,-2.4503378868103027
1744304526.335,-1.043307900428772,9.499845504760742,-2.479052782058716
1744304526.335,-1.0385221242904663,9.4950590133667,-2.507767677307129
1744304526.335,-1.0385221242904663,9.490273475646973,-2.4264087677001953
1744304526.335,-0.9954497814178467,9.475915908813477,-2.4551236629486084
1744304526.335,-0.9571632146835327,9.667348861694336,-2.4503378868103027
1744304526.335,-0.8997334241867065,9.724778175354004,-2.4072654247283936
1744304526.409,-0.8758043646812439,9.786993980407715,-2.479052782058716
1744304526.409,-0.8949476480484009,9.710420608520508,-2.459909439086914
1744304526.409,-0.7418015003204346,9.791779518127441,-2.431194543838501
1744304526.409,-0.9763064980506897,9.174409866333008,-2.0483293533325195
1744304526.409,-1.5362470149993896,8.676684379577637,-2.900204658508301
1744304526.409,-0.23450499773025513,9.538131713867188,-2.5699832439422607
1744304526.409,-1.4405306577682495,9.839637756347656,-2.9767775535583496
1744304526.409,-1.0672370195388794,9.7391357421875,-2.6034839153289795
1744304526.483,-1.201239824295044,9.600347518920898,-2.459909439086914
1744304526.483,-1.2873845100402832,9.28926944732666,-2.9672060012817383
1744304526.483,-1.0768086910247803,9.8444242477417,-2.6321988105773926
1744304526.483,-1.0911661386489868,9.447200775146484,-1.7468229532241821
1744304526.483,-2.292405843734741,7.025578022003174,-3.2639267444610596
1744304526.483,-0.923662543296814,8.107172966003418,-4.929390907287598
1744304526.483,-0.3302213251590729,11.663034439086914,-3.5080032348632812
1744304526.483,-2.9528486728668213,11.84968090057373,-2.340264081954956
1744304526.557,-1.9430413246154785,10.19857406616211,-2.038757801055908
1744304526.557,-0.6987291574478149,10.045428276062012,-1.8712540864944458
1744304526.557,-0.07178724557161331,9.657776832580566,-2.5556259155273438
1744304526.557,0.39722275733947754,9.485487937927246,-1.3926725387573242
1744304526.557,-0.8279461860656738,8.107172966003418,-2.703986167907715
1744304526.557,-0.24886244535446167,7.9779558181762695,-3.091637372970581
1744304526.557,-0.9858781099319458,8.528324127197266,-2.957634449005127
1744304526.557,-1.3113136291503906,9.322770118713379,-3.8047239780426025
1744304526.631,-0.7992312908172607,10.7298002243042,-3.6515777111053467
1744304526.631,-0.8470894694328308,11.064806938171387,-3.139495372772217
1744304526.631,-0.4546525478363037,10.45222282409668,-2.3929080963134766
1744304526.631,-0.521653950214386,9.432844161987305,-2.6561279296875
1744304526.631,-0.14836029708385468,9.514202117919922,-2.6178414821624756
1744304526.631,-0.2823631465435028,9.112194061279297,-2.7518444061279297
1744304526.631,-0.43550926446914673,8.868117332458496,-2.9337053298950195
1744304526.631,-0.7848738431930542,9.026049613952637,-2.8427748680114746
1744304526.705,-1.0480937957763672,9.27969741821289,-2.9672060012817383
1744304526.705,-0.9332341551780701,9.791779518127441,-2.9049904346466064
1744304526.705,-0.7896596789360046,9.964069366455078,-2.8762755393981934
1744304526.705,-0.5120823383331299,9.74870777130127,-2.6369848251342773
1744304526.705,-0.7178724408149719,9.509416580200195,-2.852346420288086
1744304526.705,-0.7418015003204346,9.796566009521484,-2.6752712726593018
1744304526.705,-0.9906639456748962,9.944926261901855,-2.493410348892212
1744304526.705,-1.0768086910247803,9.4950590133667,-2.3641932010650635
1744304526.779,-0.9093050956726074,9.150480270385742,-2.713557720184326
1744304526.779,-0.6030128598213196,9.332341194152832,-2.833203077316284
1744304526.779,-0.7226582169532776,9.657776832580566,-2.699200391769409
1744304526.779,-0.952377438545227,9.523774147033691,-2.7709875106811523
1744304526.779,-1.081594467163086,9.38498592376709,-2.818845748901367
1744304526.779,-0.8901618123054504,9.4950590133667,-2.909776210784912
1744304526.779,-0.7178724408149719,9.562060356140137,-2.8858470916748047
1744304526.779,-0.7705163955688477,9.590775489807129,-2.8284173011779785
1744304526.853,-0.8949476480484009,9.552489280700684,-2.833203077316284
1744304526.853,-1.0050214529037476,9.480701446533203,-2.7949166297912598
1744304526.853,-0.8805902004241943,9.490273475646973,-2.761415958404541
1744304526.853,-0.8327320218086243,9.581204414367676,-2.761415958404541
1744304526.853,-0.9380199909210205,9.55727481842041,-2.6561279296875
1744304526.853,-0.8853759765625,9.361056327819824,-2.6944146156311035
1744304526.853,-0.8423036336898804,9.428057670593262,-2.881061315536499
1744304526.853,-0.8805902004241943,9.475915908813477,-2.971991777420044
1744304526.927,-0.8566610813140869,9.590775489807129,-3.0054924488067627
1744304526.927,-0.8949476480484009,9.7391357421875,-2.9911351203918457
1744304526.927,-0.9810923337936401,9.71520709991455,-2.9528486728668213
1744304526.927,-0.9715206623077393,9.676919937133789,-2.895418882369995
1744304526.927,-0.8566610813140869,9.667348861694336,-2.8571321964263916
1744304526.927,-0.7130866050720215,9.605133056640625,-2.809274196624756
1744304526.927,-0.7130866050720215,9.447200775146484,-2.7518444061279297
1744304526.927,-0.6604426503181458,9.332341194152832,-2.6896286010742188
1744304527.001,-0.708300769329071,9.255768775939941,-2.8619179725646973
1744304527.001,-0.6843717098236084,9.222268104553223,-2.9145619869232178
1744304527.001,-0.7178724408149719,9.31319808959961,-3.02942156791687
1744304527.001,-0.7609447836875916,9.475915908813477,-2.928919553756714
1744304527.001,-0.7896596789360046,9.657776832580566,-2.8427748680114746
1744304527.001,-0.7513731122016907,9.590775489807129,-2.747058391571045
1744304527.001,-0.6365135312080383,9.590775489807129,-2.775773286819458
1744304527.001,-0.6077986359596252,9.595561027526855,-2.732701063156128
1744304527.075,-0.8231604099273682,9.576417922973633,-2.670485496520996
1744304527.075,-0.8758043646812439,9.523774147033691,-2.641770601272583
1744304527.075,-0.8183745741844177,9.518988609313965,-2.7566301822662354
1744304527.075,-0.8614469170570374,9.504631042480469,-2.809274196624756
1744304527.075,-0.8853759765625,9.4950590133667,-2.866703987121582
1744304527.075,-0.8135887384414673,9.562060356140137,-2.9145619869232178
1744304527.075,-0.746587336063385,9.633848190307617,-2.852346420288086
1744304527.075,-0.727444052696228,9.676919937133789,-2.8427748680114746
1744304527.149,-0.7370156645774841,9.542917251586914,-2.790130853652954
1744304527.149,-0.6652284264564514,9.423272132873535,-2.852346420288086
1744304527.149,-0.6269419193267822,9.480701446533203,-2.957634449005127
1744304527.149,-0.7609447836875916,9.437629699707031,-3.034207344055176
1744304527.149,-0.746587336063385,9.504631042480469,-3.062922477722168
1744304527.149,-0.5264397859573364,9.562060356140137,-2.9767775535583496
1744304527.149,-0.5455830693244934,9.4950590133667,-2.9767775535583496
1744304527.149,-0.40679436922073364,9.509416580200195,-2.900204658508301
1744304527.223,-0.4642241597175598,9.428057670593262,-2.8762755393981934
1744304527.223,-0.569512128829956,9.418486595153809,-2.971991777420044
1744304527.223,-0.5599405169487,9.408914566040039,-2.8619179725646973
1744304527.223,-0.7418015003204346,9.408914566040039,-2.924133777618408
1744304527.223,-0.6939433217048645,9.447200775146484,-2.8284173011779785
1744304527.223,-0.7896596789360046,9.466344833374023,-2.9193477630615234
1744304527.223,-0.7609447836875916,9.518988609313965,-2.895418882369995
1744304527.223,-0.8040171265602112,9.533346176147461,-2.823631525039673
1744304527.297,-0.904519259929657,9.523774147033691,-2.809274196624756
1744304527.297,-0.8997334241867065,9.581204414367676,-2.732701063156128
1744304527.297,-0.9428057670593262,9.428057670593262,-2.699200391769409
1744304527.297,-0.904519259929657,9.442415237426758,-2.7279152870178223
1744304527.297,-0.8853759765625,9.490273475646973,-2.718343496322632
1744304527.297,-0.9332341551780701,9.523774147033691,-2.7231295108795166
1744304527.297,-0.9093050956726074,9.595561027526855,-2.584340810775757
1744304527.297,-1.0241646766662598,9.528559684753418,-2.6034839153289795
1744304527.372,-0.9093050956726074,9.408914566040039,-2.6178414821624756
1744304527.372,-0.8997334241867065,9.346698760986328,-3.019850015640259
1744304527.372,-0.8662327527999878,9.906639099121094,-2.4264087677001953
1744304527.372,-0.9858781099319458,8.595325469970703,-2.1392598152160645
1744304527.372,-0.31586387753486633,7.537660598754883,-3.3979294300079346
1744304527.372,-1.4788172245025635,8.624040603637695,-6.192846298217773
1744304527.372,-0.4929390549659729,13.381141662597656,-3.7472941875457764
1744304527.372,-2.3929080963134766,13.807079315185547,0.009571632370352745
1744304527.446,-2.038757801055908,9.13133716583252,-2.4359803199768066
1744304527.446,0.0909305065870285,8.738900184631348,-3.330928087234497
1744304527.446,0.2536482512950897,9.973641395568848,-1.799466848373413
1744304527.446,-0.12443122267723083,8.05452823638916,-2.5891265869140625
1744304527.446,-0.7418015003204346,6.743215084075928,-3.5462896823883057
1744304527.446,-2.024400234222412,7.5568037033081055,-4.446023464202881
1744304527.446,-1.2060257196426392,10.107644081115723,-3.4266443252563477
1744304527.446,-1.622391700744629,10.423507690429688,-3.1490671634674072
1744304527.52,-0.9954497814178467,10.069356918334961,-2.627413034439087
1744304527.52,-0.7513731122016907,9.255768775939941,-2.9672060012817383
1744304527.52,0.4259376525878906,10.11242961883545,-2.5699832439422607
1744304527.52,0.06221561133861542,10.26078987121582,-1.9526129961013794
1744304527.52,-0.8088029623031616,8.872902870178223,-2.507767677307129
1744304527.52,-0.588655412197113,8.49960994720459,-3.3069989681243896
1744304527.52,-0.40679436922073364,9.380199432373047,-3.527146577835083
1744304527.52,-0.8088029623031616,9.887495994567871,-2.971991777420044
1744304527.594,-1.2873845100402832,9.418486595153809,-2.8427748680114746
1744304527.594,-0.8853759765625,9.222268104553223,-2.9337053298950195
1744304527.594,-0.5742979645729065,9.609918594360352,-2.938491106033325
1744304527.594,-0.5025107264518738,9.81092357635498,-2.4264087677001953
1744304527.594,-0.9188767075538635,9.538131713867188,-2.445552110671997
1744304527.594,-1.0528795719146729,9.480701446533203,-2.445552110671997
1744304527.594,-0.9810923337936401,9.65299129486084,-2.5747690200805664
1744304527.594,-0.8135887384414673,9.83485221862793,-2.7566301822662354
1744304527.668,-0.9763064980506897,9.853995323181152,-2.8714897632598877
1744304527.668,-1.1007376909255981,9.887495994567871,-2.8140599727630615
1744304527.668,-1.1629533767700195,9.696063995361328,-2.909776210784912
1744304527.668,-0.8470894694328308,9.657776832580566,-2.9337053298950195
1744304527.668,-0.8853759765625,9.413700103759766,-3.0102784633636475
1744304527.668,-0.8135887384414673,9.351485252380371,-2.957634449005127
1744304527.668,-0.8758043646812439,9.303627014160156,-3.0389933586120605
1744304527.668,-0.8901618123054504,9.088264465332031,-3.000706672668457
1744304527.742,-0.9667348861694336,9.064335823059082,-3.034207344055176
1744304527.742,-0.8949476480484009,9.212696075439453,-2.9959208965301514
1744304527.742,-0.7992312908172607,9.308412551879883,-2.98634934425354
1744304527.742,-0.952377438545227,9.418486595153809,-2.8619179725646973
1744304527.742,-0.8710185289382935,9.456772804260254,-2.7805593013763428
1744304527.742,-0.8423036336898804,9.552489280700684,-2.804488182067871
1744304527.742,-0.7944455146789551,9.518988609313965,-2.761415958404541
1744304527.742,-0.8662327527999878,9.542917251586914,-2.7422726154327393
1744304527.816,-1.0241646766662598,9.609918594360352,-2.7949166297912598
1744304527.816,-1.019378900527954,9.686491966247559,-2.7374868392944336
1744304527.816,-1.0576653480529785,9.542917251586914,-2.7709875106811523
1744304527.816,-1.1533817052841187,9.428057670593262,-2.7949166297912598
1744304527.816,-0.9093050956726074,9.581204414367676,-2.7997024059295654
1744304527.816,-0.952377438545227,9.533346176147461,-2.7231295108795166
1744304527.816,-0.765730619430542,9.451987266540527,-2.7231295108795166
1744304527.816,-0.7800880670547485,9.581204414367676,-2.790130853652954
1744304527.89,-0.8279461860656738,9.585989952087402,-2.818845748901367
1744304527.89,-0.7944455146789551,9.56684684753418,-2.8714897632598877
1744304527.89,-0.7178724408149719,9.480701446533203,-2.971991777420044
1744304527.89,-0.6652284264564514,9.528559684753418,-3.1251380443573
1744304527.89,-0.6556568145751953,9.66256332397461,-3.000706672668457
1744304527.89,-0.8327320218086243,9.46155834197998,-3.0389933586120605
1744304527.89,-0.8375178575515747,9.341913223266602,-3.015064239501953
1744304527.89,-0.8805902004241943,9.394556999206543,-2.9145619869232178
1744304527.964,-0.8279461860656738,9.466344833374023,-2.761415958404541
1744304527.964,-0.9428057670593262,9.490273475646973,-2.7374868392944336
1744304527.964,-0.9715206623077393,9.509416580200195,-2.6896286010742188
1744304527.964,-1.043307900428772,9.332341194152832,-2.8571321964263916
1744304527.964,-1.139024257659912,9.514202117919922,-2.8427748680114746
1744304527.964,-1.2347406148910522,9.518988609313965,-2.833203077316284
1744304527.964,-1.3400285243988037,9.523774147033691,-2.7279152870178223
1744304527.964,-1.2825987339019775,9.514202117919922,-2.6656997203826904
1744304528.038,-1.1055235862731934,9.423272132873535,-2.7374868392944336
1744304528.038,-1.0863802433013916,9.447200775146484,-2.6561279296875
1744304528.038,-1.1820966005325317,9.475915908813477,-2.7518444061279297
1744304528.038,-1.2203831672668457,9.509416580200195,-2.804488182067871
1744304528.038,-1.296956181526184,9.456772804260254,-2.943276882171631
1744304528.038,-1.3400285243988037,9.518988609313965,-2.8571321964263916
1744304528.038,-1.3831008672714233,9.538131713867188,-2.684842824935913
1744304528.038,-1.2108114957809448,9.533346176147461,-2.713557720184326
1744304528.112,-1.1629533767700195,9.485487937927246,-2.6034839153289795
1744304528.112,-1.177310824394226,9.451987266540527,-2.699200391769409
1744304528.112,-1.1868823766708374,9.394556999206543,-2.6752712726593018
1744304528.112,-1.2873845100402832,9.466344833374023,-2.6944146156311035
1744304528.112,-1.1007376909255981,9.370628356933594,-2.718343496322632
1744304528.112,-1.0911661386489868,9.294054985046387,-2.7709875106811523
1744304528.112,-0.9810923337936401,9.346698760986328,-2.7709875106811523
1744304528.112,-1.148595929145813,9.46155834197998,-2.7422726154327393
1744304528.186,-1.1294525861740112,9.514202117919922,-2.713557720184326
1744304528.186,-1.1342384815216064,9.547703742980957,-2.8140599727630615
1744304528.186,-1.177310824394226,9.681706428527832,-2.881061315536499
1744304528.186,-1.3400285243988037,9.710420608520508,-2.790130853652954
1744304528.186,-1.4070299863815308,9.485487937927246,-2.6800570487976074
1744304528.186,-1.1342384815216064,9.37541389465332,-2.6944146156311035
1744304528.186,-0.952377438545227,9.547703742980957,-2.790130853652954
1744304528.186,-1.0050214529037476,9.585989952087402,-2.8762755393981934
1744304528.26,-1.268241286277771,9.480701446533203,-2.804488182067871
1744304528.26,-1.3113136291503906,9.428057670593262,-2.7709875106811523
1744304528.26,-1.1150951385498047,9.31319808959961,-2.7566301822662354
1744304528.26,-1.0337363481521606,9.27969741821289,-2.8762755393981934
1744304528.26,-1.019378900527954,9.36584186553955,-2.909776210784912
1744304528.26,-0.9428057670593262,9.294054985046387,-2.9959208965301514
1744304528.26,-1.0576653480529785,9.408914566040039,-3.0533506870269775
1744304528.26,-1.0098072290420532,9.504631042480469,-3.0389933586120605
1744304528.334,-1.1677391529083252,9.667348861694336,-2.9815635681152344
1744304528.334,-1.0959519147872925,9.82528018951416,-2.8906328678131104
1744304528.334,-1.0002355575561523,9.806137084960938,-2.909776210784912
1744304528.334,-0.7370156645774841,9.676919937133789,-2.8619179725646973
1744304528.334,-0.6891575455665588,9.657776832580566,-2.804488182067871
1744304528.334,-0.7896596789360046,9.686491966247559,-2.7997024059295654
1744304528.334,-0.904519259929657,9.528559684753418,-2.8475606441497803
1744304528.334,-1.019378900527954,9.518988609313965,-2.957634449005127
1744304528.408,-0.9332341551780701,9.509416580200195,-2.866703987121582
1744304528.408,-0.9954497814178467,9.351485252380371,-2.8427748680114746
1744304528.408,-0.9571632146835327,9.351485252380371,-2.9672060012817383
1744304528.408,-0.8614469170570374,9.380199432373047,-2.924133777618408
1744304528.408,-0.8805902004241943,9.499845504760742,-2.938491106033325
1744304528.408,-0.904519259929657,9.523774147033691,-2.790130853652954
1744304528.408,-0.8997334241867065,9.404129028320312,-2.804488182067871
1744304528.408,-0.7226582169532776,9.442415237426758,-2.971991777420044
1744304528.482,-0.6365135312080383,9.624276161193848,-2.9911351203918457
1744304528.482,-0.8566610813140869,9.887495994567871,-2.747058391571045
1744304528.482,-1.081594467163086,9.796566009521484,-2.6800570487976074
1744304528.482,-1.0337363481521606,9.763065338134766,-2.627413034439087
1744304528.482,-0.8088029623031616,9.796566009521484,-2.7231295108795166
1744304528.482,-0.6748000979423523,9.877924919128418,-2.6513421535491943
1744304528.482,-0.7992312908172607,9.830066680908203,-2.536482572555542
1744304528.482,-0.9428057670593262,9.71520709991455,-2.373764753341675
1744304528.556,-0.9667348861694336,9.528559684753418,-2.340264081954956
1744304528.556,-1.043307900428772,9.600347518920898,-2.584340810775757
1744304528.556,-1.1007376909255981,9.672134399414062,-2.6034839153289795
1744304528.556,-1.306527853012085,9.66256332397461,-2.6896286010742188
1744304528.556,-1.2825987339019775,9.691277503967285,-2.6321988105773926
1744304528.556,-1.2538838386535645,9.648205757141113,-2.6082699298858643
1744304528.556,-1.268241286277771,9.65299129486084,-2.4551236629486084
1744304528.556,-1.2251689434051514,9.782208442687988,-2.368978977203369
1744304528.63,-1.139024257659912,9.796566009521484,-2.2445478439331055
1744304528.63,-1.1820966005325317,9.863567352294922,-2.014828681945801
1744304528.63,-1.3160994052886963,9.763065338134766,-1.8951832056045532
1744304528.63,-1.2778129577636719,9.801351547241211,-1.8281817436218262
1744304528.63,-1.2634555101394653,9.600347518920898,-2.0004711151123047
1744304528.63,-1.2825987339019775,9.614705085754395,-1.7898952960968018
1744304528.63,-1.3735291957855225,9.55727481842041,-1.8568966388702393
1744304528.63,-1.4501023292541504,9.585989952087402,-1.6750357151031494
1744304528.704,-1.4836030006408691,9.542917251586914,-1.809038519859314
1744304528.704,-1.49317467212677,9.447200775146484,-1.8186101913452148
1744304528.704,-1.4022440910339355,9.408914566040039,-1.9143264293670654
1744304528.704,-1.4022440910339355,9.394556999206543,-2.0674726963043213
1744304528.704,-1.5984625816345215,9.404129028320312,-2.0004711151123047
1744304528.704,-1.6176059246063232,9.571632385253906,-1.809038519859314
1744304528.704,-1.6032484769821167,9.638633728027344,-1.9334697723388672
1744304528.704,-1.5027462244033813,9.629061698913574,-1.8425391912460327
1744304528.778,-1.454888105392456,9.605133056640625,-1.928683876991272
1744304528.778,-1.416601538658142,9.696063995361328,-1.7324655055999756
1744304528.778,-1.4883887767791748,9.830066680908203,-1.679821491241455
1744304528.778,-1.837753415107727,9.772636413574219,-2.1201164722442627
1744304528.778,-1.464459776878357,10.0885009765625,-1.4309589862823486
1744304528.778,-1.7898952960968018,10.155502319335938,-1.0863802433013916
1744304528.778,-1.8186101913452148,9.786993980407715,-1.6941789388656616
1744304528.778,-1.584105134010315,10.054999351501465,-1.2634555101394653
1744304528.852,-1.809038519859314,10.035856246948242,-1.2538838386535645
1744304528.852,-1.7372512817382812,10.021498680114746,-1.296956181526184
1744304528.852,-1.7898952960968018,9.964069366455078,-1.2730270624160767
1744304528.852,-1.8233959674835205,9.997570037841797,-1.4309589862823486
1744304528.852,-1.8425391912460327,9.830066680908203,-1.517103672027588
1744304528.852,-1.8329676389694214,9.710420608520508,-1.5984625816345215
1744304528.852,-1.6606782674789429,9.696063995361328,-1.5936768054962158
1744304528.852,-1.651106595993042,9.777422904968262,-1.6319633722305298
1744304528.926,-1.7611804008483887,9.916211128234863,-1.679821491241455
1744304528.926,-1.8281817436218262,10.0885009765625,-1.5888910293579102
1744304528.926,-1.7946810722351074,10.17464542388916,-1.584105134010315
1744304528.926,-1.742037057876587,10.342148780822754,-1.5745335817337036
1744304528.926,-1.7276796102523804,10.500081062316895,-1.4405306577682495
1744304528.926,-1.6750357151031494,10.658012390136719,-1.3543859720230103
1744304528.926,-1.742037057876587,10.835087776184082,-1.2203831672668457
1744304528.926,-1.8616825342178345,10.983448028564453,-1.1820966005325317
1744304529.001,-1.7611804008483887,11.131808280944824,-1.0911661386489868
1744304529.001,-1.8138242959976196,11.237096786499023,-1.0289504528045654
1744304529.001,-1.8233959674835205,11.375885009765625,-0.8375178575515747
1744304529.001,-1.8233959674835205,11.48595905303955,-0.7226582169532776
1744304529.001,-1.7755378484725952,11.624747276306152,-0.5838695764541626
1744304529.001,-1.6463208198547363,11.864038467407227,-0.4115802049636841
1744304529.001,-1.5649619102478027,11.868824005126953,-0.41636601090431213
1744304529.001,-1.4883887767791748,12.036327362060547,-0.3206496834754944
1744304529.075,-1.4979604482650757,11.96932601928711,-0.24886244535446167
1744304529.075,-1.387886643409729,11.8592529296875,-0.18664683401584625
1744304529.075,-1.2730270624160767,11.663034439086914,-0.15793193876743317
1744304529.075,-1.1055235862731934,11.639104843139648,-0.2010042816400528
1744304529.075,-1.6654640436172485,11.160523414611816,0.19621846079826355
1744304529.075,-0.6652284264564514,9.935354232788086,-1.5506044626235962
1744304529.075,-1.2730270624160767,10.045428276062012,1.0337363481521606
1744304529.075,-1.531461238861084,8.092815399169922,0.2536482512950897
1744304529.149,-1.9095406532287598,7.719521522521973,0.2919347882270813
1744304529.149,-3.0964231491088867,6.94421911239624,0.521653950214386
1744304529.149,-4.402950763702393,6.613997936248779,0.40679436922073364
1744304529.149,-5.159110069274902,6.231132507324219,0.13400284945964813
1744304529.149,-4.580026149749756,5.441473007202148,-0.9140908718109131
1744304529.149,-4.9006757736206055,4.871960639953613,-1.4596738815307617
1744304529.149,-3.0677082538604736,6.221560955047607,-0.014357448555529118
1744304529.149,0.382865309715271,4.785816192626953,-0.363722026348114
1744304529.223,1.0528795719146729,5.594619274139404,0.2105759084224701
1744304529.223,0.2105759084224701,6.374707221984863,1.416601538658142
1744304529.223,0.9619490504264832,5.278755187988281,1.416601538658142
1744304529.223,1.3496001958847046,5.781265735626221,1.0576653480529785
1744304529.223,1.072022795677185,6.484780788421631,0.6317277550697327
1744304529.223,0.8470894694328308,6.886789321899414,0.32543548941612244
1744304529.223,0.41636601090431213,7.030364036560059,-0.06221561133861542
1744304529.223,-0.540797233581543,7.1500091552734375,-1.2586696147918701
1744304529.297,0.4115802049636841,7.877453327178955,-0.46900999546051025
1744304529.297,0.8662327527999878,7.853524208068848,-0.6173703074455261
1744304529.297,0.1005021408200264,8.944690704345703,-0.8423036336898804
1744304529.297,-0.9284483194351196,10.136358261108398,-0.5982270240783691
1744304529.297,-1.8903974294662476,10.543152809143066,-0.6987291574478149
1744304529.297,-2.718343496322632,10.686727523803711,-0.46900999546051025
1744304529.297,-2.8140599727630615,11.007377624511719,-0.5838695764541626
1744304529.297,-3.16821026802063,11.208381652832031,-1.1820966005325317
1744304529.371,-3.814295530319214,11.131808280944824,-1.6558923721313477
1744304529.371,-4.34073543548584,11.098307609558105,-1.9861136674880981
1744304529.371,-4.580026149749756,11.304098129272461,-2.172760486602783
1744304529.371,-4.8384599685668945,11.275382995605469,-2.220618724822998
1744304529.371,-4.9437479972839355,11.103093147277832,-2.1823322772979736
1744304529.371,-5.053822040557861,10.882946014404297,-2.10097336769104
1744304529.371,-6.704928398132324,10.28471851348877,-3.5319323539733887
1744304529.371,-9.8444242477417,10.423507690429688,-4.422094345092773
1744304529.445,-13.586932182312012,12.22297477722168,-1.1820966005325317
1744304529.445,-10.993020057678223,13.725720405578613,2.703986167907715
1744304529.445,-5.647263050079346,12.620197296142578,3.991370677947998
1744304529.445,-0.3302213251590729,10.557510375976562,2.368978977203369
1744304529.445,4.5991692543029785,9.849209785461426,-0.15793193876743317
1744304529.445,6.920289993286133,9.389771461486816,-2.4551236629486084
1744304529.445,6.063629150390625,9.667348861694336,-2.6369848251342773
1744304529.445,3.364428758621216,10.772871971130371,-1.0959519147872925
1744304529.519,0.31586387753486633,11.96932601928711,0.6843717098236084
1744304529.519,-1.6415349245071411,12.73505687713623,1.0385221242904663
1744304529.519,-2.0483293533325195,12.007613182067871,0.8183745741844177
1744304529.519,-2.1105449199676514,10.500081062316895,-0.6030128598213196
1744304529.519,-2.464695453643799,9.676919937133789,-1.6367491483688354
1744304529.519,-3.211282730102539,9.332341194152832,-2.7279152870178223
1744304529.519,-2.5747690200805664,9.351485252380371,-3.4457876682281494
1744304529.519,-1.201239824295044,9.432844161987305,-3.077279806137085
1744304529.593,0.05742979422211647,9.485487937927246,-1.9238981008529663
1744304529.593,0.49772489070892334,9.38498592376709,-0.9858781099319458
1744304529.593,-0.047858163714408875,9.284482955932617,-0.727444052696228
1744304529.593,-0.5742979645729065,9.538131713867188,-0.6748000979423523
1744304529.593,-1.0289504528045654,9.868352890014648,-0.6700142621994019
1744304529.593,-1.2538838386535645,9.987998008728027,-1.081594467163086
1744304529.593,-1.1150951385498047,9.959283828735352,-1.4740313291549683
1744304529.593,-1.3543859720230103,9.882710456848145,-1.8856115341186523
1744304529.667,-1.651106595993042,10.040642738342285,-1.9430413246154785
1744304529.667,-1.464459776878357,10.366077423095703,-1.6989647150039673
1744304529.667,-1.2825987339019775,10.466580390930176,-1.5075321197509766
1744304529.667,-1.1868823766708374,10.275147438049316,-1.5793193578720093
1744304529.667,-0.9428057670593262,10.145930290222168,-1.306527853012085
1744304529.667,-0.8805902004241943,10.011927604675293,-1.0528795719146729
1744304529.667,-0.7848738431930542,9.944926261901855,-1.335242748260498
1744304529.667,-0.7848738431930542,9.89706802368164,-1.521889567375183
1744304529.741,-0.7226582169532776,9.806137084960938,-1.9143264293670654
1744304529.741,-0.9954497814178467,9.571632385253906,-2.1823322772979736
1744304529.741,-1.454888105392456,9.432844161987305,-2.1871180534362793
1744304529.741,-1.5697476863861084,9.356270790100098,-2.1392598152160645
1744304529.741,-1.4213874340057373,9.380199432373047,-2.172760486602783
1744304529.741,-1.3783150911331177,9.475915908813477,-2.072258472442627
1744304529.741,-1.2634555101394653,9.65299129486084,-1.7037506103515625
1744304529.741,-1.0863802433013916,9.624276161193848,-1.6271774768829346
1744304529.815,-1.1342384815216064,9.547703742980957,-1.7611804008483887
1744304529.815,-1.1342384815216064,9.55727481842041,-1.928683876991272
1744304529.815,-1.019378900527954,9.581204414367676,-2.072258472442627
1744304529.815,-1.0863802433013916,9.624276161193848,-2.2254045009613037
1744304529.815,-1.1964540481567383,9.552489280700684,-2.268476963043213
1744304529.815,-1.387886643409729,9.619490623474121,-2.4407663345336914
1744304529.815,-1.296956181526184,9.619490623474121,-2.3785505294799805
1744304529.815,-1.306527853012085,9.638633728027344,-2.4981961250305176
1744304529.889,-1.239526391029358,9.66256332397461,-2.6609137058258057
1744304529.889,-1.1055235862731934,9.66256332397461,-2.837989091873169
1744304529.889,-1.0768086910247803,9.619490623474121,-2.9624202251434326
1744304529.889,-1.2730270624160767,9.81092357635498,-3.1107804775238037
1744304529.889,-1.3017419576644897,10.064571380615234,-3.0964231491088867
1744304529.889,-1.584105134010315,9.911425590515137,-3.2208542823791504
1744304529.889,-1.4309589862823486,9.786993980407715,-3.0677082538604736
1744304529.889,-1.1629533767700195,9.696063995361328,-3.139495372772217
1744304529.963,-1.1725249290466309,9.734350204467773,-2.9337053298950195
1744304529.963,-1.201239824295044,9.853995323181152,-2.713557720184326
1744304529.963,-1.3448143005371094,9.585989952087402,-2.6609137058258057
1744304529.963,-1.306527853012085,9.428057670593262,-2.522125244140625
1744304529.963,-1.1294525861740112,9.432844161987305,-2.416837215423584
1744304529.963,-0.9475916028022766,9.298840522766113,-2.5125534534454346
1744304529.963,-1.1246668100357056,9.222268104553223,-2.5125534534454346
1744304529.963,-1.49317467212677,9.179195404052734,-2.3785505294799805
1744304530.037,-1.837753415107727,9.145694732666016,-2.3498356342315674
1744304530.037,-1.9095406532287598,9.308412551879883,-2.388122320175171
1744304530.037,-1.296956181526184,9.39934253692627,-2.431194543838501
1744304530.037,-1.2443121671676636,9.504631042480469,-2.550840139389038
1744304530.037,-1.1246668100357056,9.562060356140137,-2.479052782058716
1744304530.037,-1.1820966005325317,9.56684684753418,-2.6944146156311035
1744304530.037,-1.6080342531204224,9.681706428527832,-2.5029819011688232
1744304530.037,-1.7659661769866943,9.614705085754395,-2.4503378868103027
1744304530.111,-1.9813278913497925,9.724778175354004,-2.4072654247283936
1744304530.111,-1.799466848373413,9.719992637634277,-2.311549186706543
1744304530.111,-2.0339717864990234,9.700849533081055,-2.6082699298858643
1744304530.111,-1.7516087293624878,9.815709114074707,-2.479052782058716
1744304530.111,-1.8233959674835205,9.863567352294922,-2.5604116916656494
1744304530.111,-1.6941789388656616,9.796566009521484,-2.6656997203826904
1744304530.111,-2.0196144580841064,9.83485221862793,-2.804488182067871
1744304530.111,-2.3833365440368652,10.01671314239502,-2.6656997203826904
1744304530.185,-2.6226272583007812,10.126787185668945,-2.6178414821624756
1744304530.185,-2.479052782058716,10.208146095275879,-2.6800570487976074
1744304530.185,-2.507767677307129,10.404364585876465,-2.6034839153289795
1744304530.185,-2.565197467803955,10.629298210144043,-2.2397620677948
1744304530.185,-2.3306925296783447,10.98823356628418,-1.7563945055007935
1744304530.185,-2.7374868392944336,10.892518043518066,-2.0961875915527344
1744304530.185,-3.2926416397094727,10.873373985290527,-3.163424491882324
1744304530.185,-5.948769569396973,8.647970199584961,-10.074143409729004
1744304530.259,0.3110780417919159,12.079400062561035,-1.4453164339065552
1744304530.259,-2.790130853652954,10.748943328857422,-3.196925163269043
1744304530.259,-2.598698139190674,11.677391052246094,-2.354621648788452
1744304530.259,-2.043543577194214,11.031306266784668,-1.8281817436218262
1744304530.259,-1.521889567375183,11.409385681152344,-0.6604426503181458
1744304530.259,-2.7997024059295654,11.313669204711914,-0.07178724557161331
1744304530.259,-3.7472941875457764,10.969090461730957,-0.047858163714408875
1744304530.259,-4.173231601715088,9.887495994567871,0.21536172926425934
1744304530.334,-4.355092525482178,9.174409866333008,0.8901618123054504
1744304530.334,-4.450809001922607,8.437394142150879,1.4022440910339355
1744304530.334,-4.2258758544921875,8.116744041442871,1.5649619102478027
1744304530.334,-3.7712230682373047,8.260318756103516,1.3687434196472168
1744304530.334,-4.06315803527832,8.75804328918457,0.6173703074455261
1744304530.334,-4.087087154388428,9.504631042480469,0.1005021408200264
1744304530.334,-3.244783401489258,10.131572723388672,-0.11007377505302429
1744304530.334,-3.991370677947998,9.274911880493164,-0.6652284264564514
1744304530.408,-4.814530849456787,8.901618003845215,-1.1007376909255981
1744304530.408,-4.962891578674316,9.351485252380371,-1.2443121671676636
1744304530.408,-4.680528163909912,9.016477584838867,-1.3160994052886963
1744304530.408,-4.982034683227539,8.451751708984375,-1.6080342531204224
1744304530.408,-5.04425048828125,8.738900184631348,-2.1057591438293457
1744304530.408,-4.670956611633301,8.528324127197266,-2.3976938724517822
1744304530.408,-4.7666730880737305,7.193081855773926,-2.833203077316284
1744304530.408,-5.283541202545166,5.79083776473999,-3.1155662536621094
1744304530.482,-6.465637683868408,4.632669925689697,-3.4601449966430664
1744304530.482,-6.982505798339844,4.771458625793457,-2.9193477630615234
1744304530.482,-7.106936931610107,5.719050407409668,-3.0724940299987793
1744304530.482,-6.594854831695557,7.575946807861328,-2.852346420288086
1744304530.482,-6.116272926330566,9.868352890014648,-3.5510756969451904
1744304530.482,-4.977248668670654,12.601054191589355,-4.307234764099121
1744304530.482,-3.694650173187256,15.419899940490723,-5.541975021362305
1744304530.482,-3.603719472885132,16.36270523071289,-7.140437602996826
1744304530.556,-4.929390907287598,13.65393352508545,-8.9590482711792
1744304530.556,-5.388829231262207,10.500081062316895,-9.28926944732666
1744304530.556,-5.675978183746338,6.063629150390625,-10.313433647155762
1744304530.556,-5.49411678314209,1.7516087293624878,-9.839637756347656
1744304530.556,-3.823867082595825,-2.129688262939453,-7.571161270141602
1744304530.556,-3.91479754447937,-4.833674430847168,-4.699671268463135
1744304530.556,-3.1777820587158203,-4.235447406768799,1.1820966005325317
1744304530.556,-5.015535354614258,-3.1586387157440186,4.709243297576904
1744304530.63,-1.517103672027588,-0.22493335604667664,7.954026699066162
1744304530.63,1.148595929145813,1.4740313291549683,10.835087776184082
1744304530.63,4.101444244384766,5.570690155029297,10.44265079498291
1744304530.63,5.063393592834473,6.465637683868408,10.390007019042969
1744304530.63,2.7805593013763428,6.077986717224121,7.74345064163208
1744304530.63,2.6896286010742188,5.843481540679932,6.1306304931640625
1744304530.63,3.2639267444610596,5.570690155029297,5.259612083435059
1744304530.63,2.909776210784912,6.178488731384277,5.221325397491455
1744304530.704,2.220618724822998,7.413229465484619,5.417543888092041
1744304530.704,2.1871180534362793,8.068885803222656,5.465402126312256
1744304530.704,1.3400285243988037,8.083243370056152,4.56566858291626
1744304530.704,0.07178724557161331,8.24596118927002,3.1299238204956055
1744304530.704,-0.5647262930870056,8.595325469970703,1.7946810722351074
1744304530.704,-1.1629533767700195,8.710185050964355,0.923662543296814
1744304530.704,-1.9861136674880981,8.76761531829834,0.4259376525878906
1744304530.704,-1.995685338973999,9.0978364944458,0.22014755010604858
1744304530.778,-1.6367491483688354,9.394556999206543,0.4737958014011383
1744304530.778,-1.0624512434005737,9.629061698913574,1.1629533767700195
1744304530.778,-0.35893622040748596,10.031070709228516,1.4501023292541504
1744304530.778,0.4642241597175598,10.433079719543457,1.2060257196426392
1744304530.778,1.0002355575561523,10.53836727142334,0.8375178575515747
1744304530.778,1.2108114957809448,10.969090461730957,0.22971917688846588
1744304530.778,1.2203831672668457,11.529030799865723,-0.2536482512950897
1744304530.778,1.0385221242904663,12.227760314941406,-0.7848738431930542
1744304530.852,0.43550926446914673,13.443357467651367,-1.139024257659912
1744304530.852,-0.5455830693244934,14.749885559082031,-1.0241646766662598
1744304530.852,-1.229954719543457,15.348112106323242,-0.7848738431930542
1744304530.852,-1.3735291957855225,15.32896900177002,-0.03350071236491203
1744304530.852,-1.1533817052841187,15.534759521484375,0.06221561133861542
1744304530.852,-0.8662327527999878,16.08034324645996,-0.10528795421123505
1744304530.852,-0.8805902004241943,16.846073150634766,-0.7705163955688477
1744304530.852,-2.10097336769104,17.272010803222656,-1.2108114957809448
1744304530.926,-2.6082699298858643,17.181079864501953,-1.742037057876587
1744304530.926,-2.249333620071411,17.166723251342773,-2.0291860103607178
1744304530.926,-1.966970443725586,17.195438385009766,-2.311549186706543
1744304530.926,-1.5697476863861084,17.6596622467041,-2.0626866817474365
1744304530.926,-2.3498356342315674,17.812807083129883,-1.8664683103561401
1744304530.926,-3.1107804775238037,18.004240036010742,-1.6319633722305298
1744304530.926,-3.16821026802063,18.066455841064453,-0.8375178575515747
1744304530.926,-3.6228628158569336,17.396442413330078,-1.2060257196426392
1744304531,-5.436686992645264,17.080577850341797,-0.9093050956726074
1744304531,-5.522831916809082,16.400991439819336,0.48815324902534485
1744304531,-5.594619274139404,14.515380859375,-1.521889567375183
1744304531,-9.341913223266602,12.73505687713623,-3.5797905921936035
1744304531,-13.357213020324707,12.170331001281738,-2.9815635681152344
1744304531,-15.1566801071167,11.548174858093262,-2.3976938724517822
1744304531,-13.567789077758789,11.33759880065918,-0.46900999546051025
1744304531,-10.059785842895508,11.466815948486328,1.2921704053878784
1744304531.074,-7.106936931610107,10.681941986083984,0.5072965025901794
1744304531.074,-7.020792484283447,9.925783157348633,-1.6032484769821167
1744304531.074,-8.202888488769531,9.274911880493164,-2.206261157989502
1744304531.074,-7.336656093597412,9.337127685546875,-2.268476963043213
1744304531.074,-4.379021644592285,9.997570037841797,-1.8664683103561401
1744304531.074,8.896832466125488,12.065042495727539,-2.9528486728668213
1744304531.074,36.80292510986328,18.458892822265625,-3.1586387157440186
1744304531.074,14.156444549560547,14.644597053527832,4.3311638832092285
1744304531.148,-3.780794858932495,10.892518043518066,3.364428758621216
1744304531.148,-4.402950763702393,11.007377624511719,3.5750045776367188
1744304531.148,-16.4249210357666,8.76761531829834,0.7035149931907654
1744304531.148,-7.858310222625732,14.668526649475098,-4.718814849853516
1744304531.148,6.570925712585449,16.17127227783203,-5.503688812255859
1744304531.148,4.977248668670654,11.926254272460938,-5.4558305740356445
1744304531.148,-0.5838695764541626,9.997570037841797,-2.6752712726593018
1744304531.148,-2.6752712726593018,6.99686336517334,-1.2155972719192505
1744304531.222,-4.134945392608643,5.881768226623535,-3.618077039718628
1744304531.222,-1.7228938341140747,7.437158584594727,-3.8334388732910156
1744304531.222,0.904519259929657,8.877689361572266,-3.5223608016967773
1744304531.222,1.5888910293579102,10.203360557556152,-2.8858470916748047
1744304531.222,1.837753415107727,10.045428276062012,-2.172760486602783
1744304531.222,1.6271774768829346,9.327555656433105,-1.0863802433013916
1744304531.222,0.9093050956726074,9.638633728027344,-0.4737958014011383
1744304531.222,0.4642241597175598,10.658012390136719,-0.03350071236491203
1744304531.296,0.7370156645774841,10.351720809936523,-0.35893622040748596
1744304531.296,1.2155972719192505,10.117215156555176,-1.1581674814224243
1744304531.296,0.8518753051757812,9.83485221862793,-2.3354783058166504
1744304531.296,0.08135887235403061,9.624276161193848,-3.374000310897827
1744304531.296,-0.38765111565589905,9.576417922973633,-4.010513782501221
1744304531.296,-0.8327320218086243,9.538131713867188,-3.9865849018096924
1744304531.296,-0.8662327527999878,9.480701446533203,-3.3979294300079346
1744304531.296,0.047858163714408875,9.322770118713379,-3.0533506870269775
1744304531.37,0.7418015003204346,9.38498592376709,-2.9624202251434326
1744304531.37,1.0672370195388794,9.657776832580566,-2.488624334335327
1744304531.37,1.3160994052886963,9.89706802368164,-2.024400234222412
1744304531.37,1.335242748260498,9.964069366455078,-1.9765421152114868
1744304531.37,1.2108114957809448,9.815709114074707,-2.5699832439422607
1744304531.37,0.952377438545227,9.36584186553955,-3.0677082538604736
1744304531.37,0.679585874080658,9.31319808959961,-3.5462896823883057
1744304531.37,0.8279461860656738,9.207910537719727,-3.9674415588378906
1744304531.444,1.3113136291503906,9.126551628112793,-4.259376525878906
1744304531.444,1.5027462244033813,8.992548942565918,-4.178017616271973
1744304531.444,1.4740313291549683,9.19355297088623,-3.809509754180908
1744304531.444,1.2730270624160767,9.538131713867188,-3.4457876682281494
1744304531.444,1.2155972719192505,9.466344833374023,-3.5032174587249756
1744304531.444,0.7800880670547485,9.140909194946289,-3.68986439704895
1744304531.444,0.5168681740760803,9.28926944732666,-3.450573444366455
1744304531.444,0.44029510021209717,9.523774147033691,-3.134709596633911
1744304531.518,0.36850783228874207,9.490273475646973,-3.1251380443573
1744304531.518,0.009571632370352745,9.380199432373047,-3.0964231491088867
1744304531.518,-0.07178724557161331,9.466344833374023,-2.9672060012817383
1744304531.518,-0.1722893863916397,9.64341926574707,-2.900204658508301
1744304531.518,-0.13400284945964813,9.624276161193848,-2.852346420288086
1744304531.518,0.0047858161851763725,9.351485252380371,-3.019850015640259
1744304531.518,0.07178724557161331,9.270126342773438,-3.3692145347595215
1744304531.518,-0.3732936680316925,9.538131713867188,-3.3069989681243896
1744304531.592,-0.7800880670547485,9.729564666748047,-3.0533506870269775
1744304531.592,-0.8518753051757812,9.571632385253906,-2.9672060012817383
1744304531.592,-0.6652284264564514,9.432844161987305,-2.895418882369995
1744304531.592,-0.521653950214386,9.46155834197998,-2.928919553756714
1744304531.592,-0.7130866050720215,9.609918594360352,-2.8140599727630615
1744304531.592,-0.8853759765625,9.672134399414062,-2.6082699298858643
1744304531.592,-0.8805902004241943,9.648205757141113,-2.4503378868103027
1744304531.592,-0.9906639456748962,9.538131713867188,-2.4551236629486084
1744304531.667,-1.043307900428772,9.547703742980957,-2.579555034637451
1744304531.667,-1.1820966005325317,9.504631042480469,-2.732701063156128
1744304531.667,-1.4596738815307617,9.657776832580566,-2.584340810775757
1744304531.667,-1.6941789388656616,9.71520709991455,-2.4694812297821045
1744304531.667,-1.770751953125,9.672134399414062,-2.4216229915618896
1744304531.667,-1.7563945055007935,9.734350204467773,-2.2589051723480225
1744304531.667,-1.622391700744629,9.724778175354004,-2.2445478439331055
1744304531.667,-1.6319633722305298,9.753493309020996,-2.1201164722442627
1744304531.741,-1.9238981008529663,9.71520709991455,-2.2301902770996094
1744304531.741,-2.057900905609131,9.791779518127441,-2.2110471725463867
1744304531.741,-2.0914015769958496,9.839637756347656,-2.4503378868103027
1744304531.741,-1.9095406532287598,9.719992637634277,-2.2158329486846924
1744304531.741,-2.1105449199676514,9.648205757141113,-2.2732627391815186
1744304531.741,-2.177546262741089,9.729564666748047,-2.373764753341675
1744304531.741,-2.2589051723480225,9.8444242477417,-2.292405843734741
1744304531.741,-2.627413034439087,9.99278450012207,-2.206261157989502
1744304531.815,-2.5460541248321533,9.89706802368164,-2.6656997203826904
1744304531.815,-2.1871180534362793,10.074143409729004,-2.4359803199768066
1744304531.815,-2.6561279296875,10.16507339477539,-2.4072654247283936
1744304531.815,-3.000706672668457,10.098072052001953,-2.761415958404541
1744304531.815,-3.6085054874420166,9.863567352294922,-5.26918363571167
1744304531.815,-1.4692455530166626,10.969090461730957,-0.30629223585128784
1744304531.815,-2.900204658508301,10.074143409729004,-2.0291860103607178
1744304531.815,-1.464459776878357,10.524009704589844,-1.3160994052886963
1744304531.889,-1.679821491241455,10.457008361816406,-1.5266753435134888
1744304531.889,-1.3160994052886963,10.897303581237793,-1.2778129577636719
1744304531.889,-2.043543577194214,10.959519386291504,-1.770751953125
1744304531.889,-2.4551236629486084,11.036091804504395,-1.9334697723388672
1744304531.889,-2.2301902770996094,10.72022819519043,-2.038757801055908
1744304531.889,-2.134474039077759,10.504866600036621,-2.134474039077759
1744304531.889,-1.4596738815307617,10.533581733703613,-1.9717562198638916
1744304531.889,-1.651106595993042,11.012163162231445,-0.14836029708385468
1744304531.963,-2.4216229915618896,12.079400062561035,-2.565197467803955
1744304531.963,0.19621846079826355,11.70132064819336,-3.0389933586120605
1744304531.963,-3.034207344055176,11.529030799865723,-2.4359803199768066
1744304531.963,-2.1871180534362793,12.002826690673828,-1.0528795719146729
1744304531.963,-0.9763064980506897,11.648676872253418,-0.952377438545227
1744304531.963,-1.148595929145813,11.911896705627441,-1.387886643409729
1744304531.963,-0.569512128829956,11.830537796020508,-1.201239824295044
1744304531.963,-1.1964540481567383,11.663034439086914,-1.0289504528045654
1744304532.037,-1.4788172245025635,11.66781997680664,-0.6891575455665588
1744304532.037,-1.4501023292541504,11.639104843139648,-0.8758043646812439
1744304532.037,-1.3974583148956299,11.529030799865723,-1.2203831672668457
1744304532.037,-1.0002355575561523,11.203596115112305,-1.622391700744629
1744304532.037,-1.0528795719146729,11.600818634033203,-1.7659661769866943
1744304532.037,-0.6460852026939392,11.505102157592773,-1.6558923721313477
1744304532.037,-0.44986671209335327,11.33759880065918,-1.7659661769866943
1744304532.037,-0.5838695764541626,11.366312980651855,-1.4836030006408691
1744304532.111,-1.3448143005371094,11.323241233825684,-2.072258472442627
1744304532.111,-0.5072965025901794,11.289740562438965,-1.7946810722351074
1744304532.111,-0.4642241597175598,11.347169876098633,-1.7372512817382812
1744304532.111,-1.2730270624160767,11.194024085998535,-1.4405306577682495
1744304532.111,-2.833203077316284,10.99780559539795,-1.2730270624160767
1744304532.111,-5.685549736022949,10.768086433410645,-0.45943835377693176
1744304532.111,-9.183980941772461,11.24188232421875,-1.3735291957855225
1744304532.111,-6.365135669708252,11.031306266784668,-3.632434368133545
1744304532.185,-4.369450092315674,10.81594467163086,-3.287855625152588
1744304532.185,-4.977248668670654,10.313433647155762,-1.966970443725586
1744304532.185,-4.053586483001709,9.308412551879883,-1.6606782674789429
1744304532.185,-3.302213191986084,8.078457832336426,-2.522125244140625
1744304532.185,-1.3687434196472168,6.657070159912109,-3.393143653869629
1744304532.185,-1.4692455530166626,5.04425048828125,-6.125844955444336
1744304532.185,-1.7037506103515625,4.627884387969971,-3.977013349533081
1744304532.185,0.11485958844423294,6.838931560516357,-1.2538838386535645
1744304532.259,1.5697476863861084,5.04425048828125,-1.9143264293670654
1744304532.259,2.8284173011779785,4.517810344696045,-0.7609447836875916
1744304532.259,2.2589051723480225,4.087087154388428,-0.3732936680316925
1744304532.259,1.6080342531204224,3.933940887451172,-1.2203831672668457
1744304532.259,1.268241286277771,4.005728244781494,-1.0289504528045654
1744304532.259,1.043307900428772,4.039228916168213,-0.9667348861694336
1744304532.259,1.0337363481521606,4.087087154388428,-1.4501023292541504
1744304532.259,1.2778129577636719,4.297662734985352,-1.3974583148956299
1744304532.333,1.2730270624160767,4.871960639953613,-1.5458186864852905
1744304532.333,0.8853759765625,5.498902797698975,-1.454888105392456
1744304532.333,0.5790837407112122,5.97269868850708,-1.268241286277771
1744304532.333,0.540797233581543,6.709714412689209,-0.746587336063385
1744304532.333,0.4307234585285187,7.757808208465576,-0.16750356554985046
1744304532.333,0.40679436922073364,8.791543960571289,0.14836029708385468
1744304532.333,-0.4115802049636841,9.523774147033691,0.3015064299106598
1744304532.333,-1.679821491241455,10.595796585083008,0.2727915346622467
1744304532.407,-2.732701063156128,11.672605514526367,0.06700142472982407
1744304532.407,-3.49843168258667,12.069828033447266,-0.2632198929786682
1744304532.407,-3.6659352779388428,12.065042495727539,-0.4211518168449402
1744304532.407,-3.570218801498413,12.179902076721191,-1.1055235862731934
1744304532.407,-3.484074115753174,12.495765686035156,-1.7611804008483887
1744304532.407,-4.125373363494873,12.845130920410156,-2.0052568912506104
1744304532.407,-4.752315521240234,13.065278053283691,-2.206261157989502
1744304532.407,-4.627884387969971,13.089207649230957,-2.431194543838501
1744304532.481,-4.283305644989014,12.811630249023438,-2.5412683486938477
1744304532.481,-3.7329366207122803,12.58669662475586,-2.5316967964172363
1744304532.481,-3.4266443252563477,12.538838386535645,-2.718343496322632
1744304532.481,-3.5223608016967773,12.581911087036133,-2.7566301822662354
1744304532.481,-3.5797905921936035,12.610625267028809,-2.8762755393981934
1744304532.481,-3.330928087234497,12.701556205749512,-3.058136463165283
1744304532.481,-3.2160685062408447,12.668055534362793,-3.1107804775238037
1744304532.481,-3.1490671634674072,12.57712459564209,-3.120352268218994
1744304532.555,-3.5654330253601074,12.811630249023438,-2.9049904346466064
1744304532.555,-3.584576368331909,13.074850082397461,-3.000706672668457
1744304532.555,-3.139495372772217,13.132279396057129,-2.7997024059295654
1744304532.555,-2.9815635681152344,13.09877872467041,-2.5604116916656494
1744304532.555,-2.895418882369995,13.09877872467041,-2.416837215423584
1744304532.555,-2.593912363052368,13.180137634277344,-2.2254045009613037
1744304532.555,-2.6513421535491943,13.132279396057129,-2.0339717864990234
1744304532.555,-2.6513421535491943,13.113136291503906,-1.5506044626235962
1744304532.629,-1.809038519859314,13.117921829223633,-0.8710185289382935
1744304532.629,-1.7516087293624878,12.237332344055176,-1.4405306577682495
1744304532.629,-2.8619179725646973,12.715913772583008,0.339792937040329
1744304532.629,-3.6659352779388428,12.591482162475586,1.9717562198638916
1744304532.629,-2.3833365440368652,11.323241233825684,0.25843408703804016
1744304532.629,-2.148831367492676,11.428528785705566,-0.34936457872390747
1744304532.629,-3.7903664112091064,12.036327362060547,-0.37807947397232056
1744304532.629,-4.647027492523193,11.481172561645508,-0.363722026348114
1744304532.703,-4.857603549957275,10.361291885375977,-0.9667348861694336
1744304532.703,-4.656599044799805,9.801351547241211,-0.8853759765625
1744304532.703,-3.9961564540863037,9.801351547241211,-0.32543548941612244
1744304532.703,-3.4170727729797363,10.428293228149414,0.5455830693244934
1744304532.703,-3.2926416397094727,10.418722152709961,0.6843717098236084
1744304532.703,-2.8571321964263916,10.500081062316895,0.9140908718109131
1744304532.703,-2.5699832439422607,10.370863914489746,0.9428057670593262
1744304532.703,-2.4120514392852783,10.289505004882812,0.5455830693244934
1744304532.777,-2.6465563774108887,10.208146095275879,0.05742979422211647
1744304532.777,-2.8858470916748047,10.313433647155762,-0.14836029708385468
1744304532.777,-2.7087719440460205,10.3804349899292,-0.28714898228645325
1744304532.777,-2.3211207389831543,10.557510375976562,-0.363722026348114
1744304532.777,-2.0914015769958496,10.619726181030273,-0.7513731122016907
1744304532.777,-1.928683876991272,10.567082405090332,-0.8518753051757812
1744304532.777,-2.249333620071411,10.413935661315918,-0.9380199909210205
1744304532.777,-2.627413034439087,10.28471851348877,-0.8805902004241943
1744304532.851,-2.7949166297912598,10.471365928649902,-0.9475916028022766
1744304532.851,-2.7279152870178223,10.447436332702637,-1.0480937957763672
1744304532.851,-2.550840139389038,10.490509033203125,-0.9428057670593262
1744304532.851,-2.4072654247283936,10.500081062316895,-1.0098072290420532
1744304532.851,-2.3306925296783447,10.53836727142334,-1.0337363481521606
1744304532.851,-1.7516087293624878,9.997570037841797,-1.9382555484771729
1744304532.851,18.774757385253906,9.380199432373047,-9.858781814575195
1744304532.851,57.19050216674805,13.333283424377441,-14.35744857788086
1744304532.925,16.96571922302246,8.695828437805176,-3.345285415649414
1744304532.925,-7.877453327178955,8.920761108398438,-0.22493335604667664
1744304532.925,-3.5367181301116943,10.117215156555176,0.8375178575515747
1744304532.925,-24.067869186401367,10.557510375976562,0.6508709788322449
1744304532.925,-5.977484226226807,19.40169906616211,3.0964231491088867
1744304532.925,7.499373912811279,15.448615074157715,-7.3605852127075195
1744304532.925,9.303627014160156,10.189002990722656,-4.527381896972656
1744304532.925,1.7324655055999756,6.144988059997559,-1.296956181526184
1744304533,-2.641770601272583,5.570690155029297,-1.1246668100357056
1744304533,-0.23929080367088318,9.46155834197998,-3.350071430206299
1744304533,1.770751953125,11.481172561645508,-5.374471664428711
1744304533,0.24407662451267242,10.069356918334961,-5.13039493560791
1744304533,-0.009571632370352745,8.461322784423828,-3.8621537685394287
1744304533,1.454888105392456,7.508945465087891,-2.924133777618408
1744304533,2.957634449005127,8.102386474609375,-3.000706672668457
1744304533,2.0004711151123047,9.22705364227295,-4.039228916168213
1744304533.074,0.5934411883354187,9.667348861694336,-3.1777820587158203
1744304533.074,0.9906639456748962,9.667348861694336,-1.8712540864944458
1744304533.074,2.072258472442627,9.796566009521484,-1.7898952960968018
1744304533.074,1.7898952960968018,9.724778175354004,-2.6561279296875
1744304533.074,-0.17707519233226776,9.581204414367676,-3.4745025634765625
1744304533.074,-1.7276796102523804,9.71520709991455,-3.6850783824920654
1744304533.074,-1.622391700744629,9.935354232788086,-4.029657363891602
1744304533.074,-0.5599405169487,9.337127685546875,-4.321591854095459
1744304533.148,-0.31586387753486633,9.049978256225586,-4.024871349334717
1744304533.148,-0.20579010248184204,9.475915908813477,-3.273498296737671
1744304533.148,0.16750356554985046,9.93056869506836,-2.809274196624756
1744304533.148,0.47858160734176636,10.117215156555176,-2.6896286010742188
1744304533.148,0.6221560835838318,10.045428276062012,-2.732701063156128
1744304533.148,0.746587336063385,9.820494651794434,-2.9337053298950195
1744304533.148,0.5168681740760803,9.413700103759766,-3.3357138633728027
1744304533.148,0.23450499773025513,9.31319808959961,-3.3261423110961914
1744304533.222,0.26800569891929626,9.298840522766113,-3.4888598918914795
1744304533.222,0.29672059416770935,9.169623374938965,-3.646791934967041
1744304533.222,-0.15793193876743317,9.174409866333008,-3.436216115951538
1744304533.222,-0.4929390549659729,9.456772804260254,-2.823631525039673
1744304533.222,-0.8375178575515747,9.542917251586914,-2.8762755393981934
1744304533.222,-0.9093050956726074,9.552489280700684,-2.6944146156311035
1744304533.222,-0.7322298884391785,9.595561027526855,-2.340264081954956
1744304533.222,-0.5647262930870056,9.595561027526855,-2.2110471725463867
1744304533.296,-1.2203831672668457,9.576417922973633,-2.1249024868011475
1744304533.296,-1.7946810722351074,9.801351547241211,-1.9191123247146606
1744304533.296,-2.10097336769104,9.873138427734375,-1.8999689817428589
1744304533.296,-1.9765421152114868,9.815709114074707,-1.8616825342178345
1744304533.296,-1.904754877090454,9.691277503967285,-1.966970443725586
1744304533.296,-1.8808257579803467,9.552489280700684,-1.9382555484771729
1744304533.296,-1.9238981008529663,9.66256332397461,-1.8903974294662476
1744304533.296,-2.1057591438293457,9.71520709991455,-1.9238981008529663
1744304533.37,-2.4264087677001953,9.753493309020996,-1.928683876991272
1744304533.37,-2.522125244140625,9.849209785461426,-1.9478272199630737
1744304533.37,-2.4503378868103027,9.877924919128418,-2.0004711151123047
1744304533.37,-2.3354783058166504,9.83485221862793,-1.9861136674880981
1744304533.37,-2.325906753540039,9.944926261901855,-2.0196144580841064
1744304533.37,-2.325906753540039,10.021498680114746,-1.9621846675872803
1744304533.37,-2.1823322772979736,10.16507339477539,-1.9765421152114868
1744304533.37,-2.1249024868011475,10.26078987121582,-1.9765421152114868
1744304533.444,-1.9908995628356934,10.227289199829102,-2.3211207389831543
1744304533.444,-1.8329676389694214,10.327791213989258,-2.3498356342315674
1744304533.444,-1.904754877090454,10.409150123596191,-2.129688262939453
1744304533.444,-2.0004711151123047,10.562295913696289,-2.4694812297821045
1744304533.444,-0.765730619430542,11.14616584777832,-1.3687434196472168
1744304533.444,-1.5553902387619019,11.036091804504395,-1.6606782674789429
1744304533.444,-0.6173703074455261,11.141380310058594,-1.742037057876587
1744304533.444,-1.0098072290420532,11.318455696105957,-1.809038519859314
1744304533.518,-0.27757734060287476,10.954732894897461,-1.9430413246154785
1744304533.518,-0.8901618123054504,10.935589790344238,-2.5604116916656494
1744304533.518,-1.0863802433013916,11.33759880065918,-2.7422726154327393
1744304533.518,-1.3208853006362915,11.720463752746582,-2.747058391571045
1744304533.518,-1.6367491483688354,11.87360954284668,-2.6609137058258057
1744304533.518,-1.3639576435089111,11.916682243347168,-2.4216229915618896
1744304533.518,-1.6558923721313477,12.03154182434082,-2.3306925296783447
1744304533.518,-1.5553902387619019,12.017184257507324,-2.0004711151123047
1744304533.592,-1.6319633722305298,12.194259643554688,-1.5410327911376953
1744304533.592,-1.3831008672714233,12.175116539001465,-1.0337363481521606
1744304533.592,-1.2347406148910522,12.280404090881348,-0.6412993669509888
1744304533.592,0.4259376525878906,12.663269996643066,0.43550926446914673
1744304533.592,-2.010042905807495,13.80229377746582,-0.9858781099319458
1744304533.592,1.560176134109497,13.883652687072754,-2.7805593013763428
1744304533.592,-0.7705163955688477,14.07029914855957,-3.1777820587158203
1744304533.592,-2.129688262939453,14.7594575881958,-2.8571321964263916
1744304533.666,-1.0480937957763672,14.276089668273926,-4.139730930328369
1744304533.666,1.6606782674789429,14.52973747253418,-4.527381896972656
1744304533.666,1.4836030006408691,14.797743797302246,-4.613526821136475
1744304533.666,3.3883578777313232,14.903031349182129,-5.489331245422363
1744304533.666,5.45104455947876,14.68766975402832,-6.508709907531738
1744304533.666,3.7329366207122803,14.032012939453125,-6.039700031280518
1744304533.666,0,13.381141662597656,-4.182803153991699
1744304533.666,-6.006199359893799,13.366785049438477,-2.0291860103607178
1744304533.74,-10.96430492401123,14.855173110961914,-3.5797905921936035
1744304533.74,-3.8047239780426025,13.3859281539917,-7.638162612915039
1744304533.74,-2.4072654247283936,13.797508239746094,-5.470187664031982
1744304533.74,-2.9767775535583496,11.150951385498047,-3.4553592205047607
1744304533.74,-1.4022440910339355,9.595561027526855,-2.2110471725463867
1744304533.74,-1.2108114957809448,7.164366722106934,-2.6465563774108887
1744304533.74,-2.598698139190674,4.532167911529541,-4.771458625793457
1744304533.74,-1.8138242959976196,4.474738121032715,-3.900440216064453
1744304533.814,1.4979604482650757,4.5704545974731445,-2.5269110202789307
1744304533.814,3.4122869968414307,3.823867082595825,-1.3400285243988037
1744304533.814,3.3548572063446045,3.077279806137085,-0.4737958014011383
1744304533.814,3.378786325454712,2.416837215423584,-1.1581674814224243
1744304533.814,2.7087719440460205,2.0339717864990234,-2.1823322772979736
1744304533.814,2.0626866817474365,1.904754877090454,-2.3450498580932617
1744304533.814,1.4740313291549683,2.14404559135437,-2.4264087677001953
1744304533.814,0.6700142621994019,2.584340810775757,-2.431194543838501
1744304533.888,0.48815324902534485,3.058136463165283,-2.61305570602417
1744304533.888,0.5647262930870056,3.780794858932495,-2.8427748680114746
1744304533.888,0.38765111565589905,4.345520973205566,-2.924133777618408
1744304533.888,0.23450499773025513,4.623098373413086,-2.8427748680114746
1744304533.888,0.6843717098236084,5.1112518310546875,-2.292405843734741
1744304533.888,1.1438100337982178,5.939198017120361,-1.6080342531204224
1744304533.888,0.8997334241867065,7.22179651260376,-0.7848738431930542
1744304533.888,0.23450499773025513,8.384750366210938,-0.22014755010604858
1744304533.962,-0.6173703074455261,9.370628356933594,0.2919347882270813
1744304533.962,-1.4309589862823486,10.035856246948242,0.4450809061527252
1744304533.962,-1.7851094007492065,10.801587104797363,0.14357449114322662
1744304533.962,-1.9908995628356934,11.552960395812988,-0.2010042816400528
1744304533.962,-1.7372512817382812,12.22297477722168,-0.44986671209335327
1744304533.962,-1.5506044626235962,12.936060905456543,-0.6987291574478149
1744304533.962,-1.49317467212677,13.768793106079102,-0.8423036336898804
1744304533.962,-1.7611804008483887,14.462736129760742,-0.8183745741844177
1744304534.036,-1.9382555484771729,14.936532020568848,-0.5982270240783691
1744304534.036,-2.431194543838501,15.429471015930176,-0.3541503846645355
1744304534.036,-2.2732627391815186,15.84105110168457,0.15314611792564392
1744304534.036,-2.2397620677948,16.185630798339844,0.5072965025901794
1744304534.036,-2.459909439086914,16.281347274780273,0.8566610813140869
1744304534.036,-2.507767677307129,16.209558486938477,0.8470894694328308
1744304534.036,-2.5412683486938477,16.228702545166016,0.7609447836875916
1744304534.036,-2.9815635681152344,16.132986068725586,0.5072965025901794
1744304534.11,-3.555861473083496,16.008554458618164,0.4642241597175598
1744304534.11,-3.809509754180908,16.1473445892334,0.6221560835838318
1744304534.11,-3.7568657398223877,16.247846603393555,0.8614469170570374
1744304534.11,-3.5510756969451904,15.716620445251465,0.6700142621994019
1744304534.11,-3.886082649230957,15.879338264465332,1.5123178958892822
1744304534.11,-4.508238792419434,16.099485397338867,2.3785505294799805
1744304534.11,-5.2165398597717285,15.740549087524414,2.909776210784912
1744304534.11,-6.867646217346191,15.0513916015625,2.747058391571045
1744304534.184,-9.241411209106445,13.6300048828125,1.1246668100357056
1744304534.184,-11.002591133117676,13.424214363098145,0.8566610813140869
1744304534.184,-11.165308952331543,12.993491172790527,1.4022440910339355
1744304534.184,-10.308648109436035,13.007848739624023,2.292405843734741
1744304534.184,-9.284482955932617,12.644125938415527,2.670485496520996
1744304534.184,-9.183980941772461,12.289976119995117,2.1249024868011475
1744304534.184,-9.892282485961914,11.983683586120605,1.416601538658142
1744304534.184,-9.394556999206543,11.921467781066895,1.1725249290466309
1744304534.258,-8.174174308776855,11.60560417175293,0.48815324902534485
1744304534.258,-7.1356520652771,11.127022743225098,-0.009571632370352745
1744304534.258,-5.991841793060303,10.978662490844727,0.023929081857204437
1744304534.258,7.370156764984131,12.40483570098877,2.388122320175171
1744304534.258,45.55139923095703,17.80323600769043,-9.629061698913574
1744304534.258,25.69504737854004,16.214345932006836,2.3785505294799805
1744304534.258,-7.82959508895874,10.619726181030273,4.312020301818848
1744304534.258,-15.553902626037598,11.088736534118652,7.17872428894043
1744304534.333,-23.1585636138916,10.78244400024414,4.824102878570557
1744304534.333,-1.4692455530166626,16.98007583618164,-3.512789011001587
