                                                                                AngularVelocity                                                                 10.04.2519.43.20104 
Timestamp,GyroX,GyroY,GyroZ
1744304518.963,-16.8700008392334,-9.65999984741211,-100.87000274658203
1744304518.963,-23.520000457763672,-21.84000015258789,-92.47000122070312
1744304518.963,-22.469999313354492,-40.040000915527344,-76.93000030517578
1744304518.963,-25.40999984741211,-58.17000198364258,-68.38999938964844
1744304518.963,-25.760000228881836,-66.01000213623047,-64.12000274658203
1744304518.963,-19.530000686645508,-61.25,-61.810001373291016
1744304518.963,-10.779999732971191,-49.70000076293945,-57.119998931884766
1744304518.963,-2.799999952316284,-29.75,-52.36000061035156
1744304519.037,2.450000047683716,-14.069999694824219,-50.400001525878906
1744304519.037,3.7799999713897705,-1.6800000667572021,-50.959999084472656
1744304519.037,2.940000057220459,4.690000057220459,-50.88999938964844
1744304519.037,0.2800000011920929,0.8400000333786011,-47.810001373291016
1744304519.037,-4.130000114440918,-16.65999984741211,-41.439998626708984
1744304519.037,-8.609999656677246,-41.790000915527344,-33.11000061035156
1744304519.037,-11.760000228881836,-63.77000045776367,-25.059999465942383
1744304519.037,-12.039999961853027,-69.51000213623047,-20.860000610351562
1744304519.111,-10.149999618530273,-58.52000045776367,-21.06999969482422
1744304519.111,-6.579999923706055,-37.45000076293945,-22.81999969482422
1744304519.111,-3.7799999713897705,-16.940000534057617,-24.780000686645508
1744304519.111,-1.8200000524520874,-8.539999961853027,-25.34000015258789
1744304519.111,-1.190000057220459,-14.980000495910645,-23.520000457763672
1744304519.111,-1.4700000286102295,-30.940000534057617,-20.299999237060547
1744304519.111,-2.6600000858306885,-45.779998779296875,-17.149999618530273
1744304519.111,-3.640000104904175,-50.81999969482422,-15.329999923706055
1744304519.185,-4.409999847412109,-47.810001373291016,-15.260000228881836
1744304519.185,-4.760000228881836,-40.529998779296875,-16.450000762939453
1744304519.185,-5.670000076293945,-35.97999954223633,-17.71000099182129
1744304519.185,-6.510000228881836,-34.58000183105469,-18.40999984741211
1744304519.185,-7.490000247955322,-34.15999984741211,-19.040000915527344
1744304519.185,-9.239999771118164,-35.209999084472656,-19.31999969482422
1744304519.185,-10.569999694824219,-36.33000183105469,-19.25
1744304519.185,-10.079999923706055,-38.220001220703125,-19.8799991607666
1744304519.259,-12.109999656677246,-39.47999954223633,-21.770000457763672
1744304519.259,-10.5,-42.13999938964844,-22.68000030517578
1744304519.259,-9.869999885559082,-49,-27.3700008392334
1744304519.259,-15.119999885559082,-51.45000076293945,-24.920000076293945
1744304519.259,-19.809999465942383,-53.27000045776367,-28.90999984741211
1744304519.259,-24.71000099182129,-56.279998779296875,-34.86000061035156
1744304519.259,-29.889999389648438,-54.31999969482422,-38.779998779296875
1744304519.259,-35.90999984741211,-45.08000183105469,-47.38999938964844
1744304519.333,-42.630001068115234,-34.93000030517578,-56.06999969482422
1744304519.333,-48.58000183105469,-29.1200008392334,-63.279998779296875
1744304519.333,-53.20000076293945,-24.989999771118164,-71.75
1744304519.333,-57.33000183105469,-20.93000030517578,-79.87000274658203
1744304519.333,-63,-23.940000534057617,-86.5199966430664
1744304519.333,-68.5999984741211,-35.560001373291016,-93.66000366210938
1744304519.333,-73.1500015258789,-43.189998626708984,-100.02999877929688
1744304519.333,-76.93000030517578,-49.90999984741211,-107.16999816894531
1744304519.407,-79.59000396728516,-55.58000183105469,-115.77999877929688
1744304519.407,-82.31999969482422,-63.630001068115234,-125.09000396728516
1744304519.407,-84.7699966430664,-75.11000061035156,-134.39999389648438
1744304519.407,-87.43000030517578,-89.73999786376953,-143.14999389648438
1744304519.407,-90.93000030517578,-106.95999908447266,-153.72000122070312
1744304519.407,-93.66000366210938,-124.80999755859375,-167.3000030517578
1744304519.407,-91.41999816894531,-130.6199951171875,-182.6999969482422
1744304519.407,-82.94999694824219,-132.22999572753906,-190.3300018310547
1744304519.481,-68.94999694824219,-115.36000061035156,-190.3300018310547
1744304519.481,-49,-107.7300033569336,-187.52999877929688
1744304519.481,-15.819999694824219,-72.87000274658203,-175.13999938964844
1744304519.481,-0.21000000834465027,-11.0600004196167,-167.16000366210938
1744304519.481,-8.960000038146973,45.36000061035156,-180.25
1744304519.481,-9.65999984741211,108.8499984741211,-213.7100067138672
1744304519.481,-3.990000009536743,70.69999694824219,-200.75999450683594
1744304519.481,7.349999904632568,-59.92000198364258,-136.22000122070312
1744304519.555,2.0299999713897705,-197.75,-65.7300033569336
1744304519.555,-10.5,-275.1000061035156,-35.06999969482422
1744304519.555,-18.899999618530273,-283.57000732421875,-36.2599983215332
1744304519.555,-31.920000076293945,-263.4800109863281,-32.27000045776367
1744304519.555,-37.869998931884766,-234.99000549316406,-25.200000762939453
1744304519.555,-33.25,-200.5500030517578,-21.489999771118164
1744304519.555,-27.860000610351562,-165.5500030517578,-20.3700008392334
1744304519.555,-22.260000228881836,-129.36000061035156,-17.149999618530273
1744304519.629,-11.899999618530273,-80.70999908447266,-12.880000114440918
1744304519.629,-1.9600000381469727,-31.71000099182129,-7.980000019073486
1744304519.629,7.769999980926514,8.680000305175781,-2.6600000858306885
1744304519.629,18.690000534057617,40.459999084472656,4.480000019073486
1744304519.629,31.290000915527344,76.37000274658203,14.980000495910645
1744304519.629,42.349998474121094,107.59000396728516,24.639999389648438
1744304519.629,48.439998626708984,123.4800033569336,31.71000099182129
1744304519.629,49.209999084472656,118.09000396728516,40.459999084472656
1744304519.703,49,98.91000366210938,50.2599983215332
1744304519.703,49.97999954223633,75.11000061035156,61.529998779296875
1744304519.703,52.709999084472656,58.029998779296875,72.66000366210938
1744304519.703,56.06999969482422,46.27000045776367,83.16000366210938
1744304519.703,58.310001373291016,35.560001373291016,91.84000396728516
1744304519.703,60.54999923706055,29.1200008392334,98.48999786376953
1744304519.703,63,28.979999542236328,103.04000091552734
1744304519.703,65.16999816894531,38.08000183105469,106.61000061035156
1744304519.777,67.62000274658203,57.68000030517578,108.98999786376953
1744304519.777,71.33000183105469,86.7300033569336,111.44000244140625
1744304519.777,76.0199966430664,120.19000244140625,114.30999755859375
1744304519.777,80.91999816894531,154.2100067138672,118.44000244140625
1744304519.777,85.68000030517578,184.94000244140625,122.77999877929688
1744304519.777,89.45999908447266,208.6699981689453,127.68000030517578
1744304519.777,91.84000396728516,224.2100067138672,133.77000427246094
1744304519.777,91.9800033569336,229.32000732421875,139.50999450683594
1744304519.851,90.0199966430664,224.97999572753906,145.74000549316406
1744304519.851,85.81999969482422,209.7899932861328,152.80999755859375
1744304519.851,79.0999984741211,183.82000732421875,159.8800048828125
1744304519.851,71.54000091552734,156.02999877929688,165.33999633789062
1744304519.851,63.77000045776367,133.07000732421875,169.6800079345703
1744304519.851,57.04999923706055,118.44000244140625,172.47999572753906
1744304519.851,53.130001068115234,113.81999969482422,172.05999755859375
1744304519.851,49.209999084472656,109.4800033569336,170.1699981689453
1744304519.925,43.540000915527344,101.5,164.77999877929688
1744304519.925,35.84000015258789,85.95999908447266,155.39999389648438
1744304519.925,28.139999389648438,69.16000366210938,144.05999755859375
1744304519.925,21.6299991607666,63.13999938964844,129.7100067138672
1744304519.925,17.43000030517578,68.18000030517578,111.30000305175781
1744304519.925,14,85.61000061035156,89.5999984741211
1744304519.925,8.819999694824219,102.83000183105469,66.08000183105469
1744304519.925,2.7300000190734863,108.1500015258789,39.900001525878906
1744304519.999,-5.740000247955322,91.06999969482422,16.100000381469727
1744304519.999,-15.470000267028809,56.630001068115234,-3.0799999237060547
1744304519.999,-25.200000762939453,18.270000457763672,-21.139999389648438
1744304519.999,-23.309999465942383,-9.730000495910645,-37.59000015258789
1744304519.999,6.300000190734863,10.220000267028809,-68.11000061035156
1744304519.999,-37.45000076293945,-41.369998931884766,-100.02999877929688
1744304519.999,-60.76000213623047,-23.520000457763672,-125.30000305175781
1744304519.999,-80.56999969482422,-80.1500015258789,-87.77999877929688
1744304520.073,-66.08000183105469,-45.709999084472656,-62.09000015258789
1744304520.073,-28.489999771118164,-14.5600004196167,-43.81999969482422
1744304520.073,-25.270000457763672,10.710000038146973,-51.869998931884766
1744304520.073,-35.90999984741211,25.270000457763672,-56.84000015258789
1744304520.073,-47.459999084472656,51.72999954223633,-77.48999786376953
1744304520.073,-56.70000076293945,31.5,-74.9000015258789
1744304520.073,-43.119998931884766,19.25,-58.099998474121094
1744304520.073,-40.38999938964844,24.5,-48.439998626708984
1744304520.147,-37.869998931884766,30.030000686645508,-46.20000076293945
1744304520.147,-29.96000099182129,33.040000915527344,-48.720001220703125
1744304520.147,-28.420000076293945,37.310001373291016,-54.11000061035156
1744304520.147,-21.559999465942383,24.010000228881836,-47.67000198364258
1744304520.147,-15.539999961853027,8.1899995803833,-41.93000030517578
1744304520.147,-13.020000457763672,2.799999952316284,-39.970001220703125
1744304520.147,-10.010000228881836,6.159999847412109,-39.27000045776367
1744304520.147,-7.28000020980835,2.940000057220459,-36.959999084472656
1744304520.221,-3.9200000762939453,-6.929999828338623,-31.920000076293945
1744304520.221,-2.6600000858306885,-12.180000305175781,-28.06999969482422
1744304520.221,0.3499999940395355,-14.350000381469727,-20.09000015258789
1744304520.221,0.14000000059604645,-8.470000267028809,-15.399999618530273
1744304520.221,-1.3300000429153442,-3.0799999237060547,-10.850000381469727
1744304520.221,-1.6100000143051147,-2.309999942779541,-5.25
1744304520.221,-2.5199999809265137,-2.380000114440918,-2.1700000762939453
1744304520.221,-3.430000066757202,-2.1700000762939453,-0.2800000011920929
1744304520.295,-2.380000114440918,-2.940000057220459,3.430000066757202
1744304520.295,-2.6600000858306885,-3.2899999618530273,5.320000171661377
1744304520.295,-2.5199999809265137,-3.9200000762939453,7.210000038146973
1744304520.295,-1.399999976158142,-4.059999942779541,10.149999618530273
1744304520.295,0.699999988079071,-4.619999885559082,12.460000038146973
1744304520.295,3.430000066757202,-3.7100000381469727,14.770000457763672
1744304520.295,5.740000247955322,-2.0999999046325684,16.239999771118164
1744304520.295,8.470000267028809,-1.9600000381469727,18.479999542236328
1744304520.369,11.0600004196167,-3.5,19.31999969482422
1744304520.369,12.8100004196167,-4.059999942779541,18.34000015258789
1744304520.369,15.190000534057617,-5.460000038146973,18.479999542236328
1744304520.369,16.8700008392334,-7.630000114440918,18.479999542236328
1744304520.369,18.1299991607666,-9.65999984741211,18.059999465942383
1744304520.369,19.110000610351562,-10.430000305175781,18.34000015258789
1744304520.369,19.46000099182129,-13.369999885559082,20.15999984741211
1744304520.369,18.969999313354492,-17.010000228881836,21.350000381469727
1744304520.443,17.71000099182129,-18.479999542236328,22.190000534057617
1744304520.443,16.239999771118164,-17.56999969482422,22.399999618530273
1744304520.443,14.420000076293945,-14.90999984741211,21.979999542236328
1744304520.443,12.739999771118164,-11.40999984741211,20.649999618530273
1744304520.443,11.40999984741211,-8.119999885559082,18.969999313354492
1744304520.443,9.800000190734863,-7.420000076293945,17.43000030517578
1744304520.443,9.239999771118164,-7.699999809265137,15.960000038146973
1744304520.443,8.819999694824219,-8.470000267028809,13.789999961853027
1744304520.517,8.260000228881836,-9.520000457763672,11.619999885559082
1744304520.517,8.609999656677246,-8.75,9.029999732971191
1744304520.517,8.119999885559082,-4.550000190734863,5.809999942779541
1744304520.517,7.559999942779541,0.3499999940395355,3.009999990463257
1744304520.517,7.210000038146973,2.240000009536743,1.190000057220459
1744304520.517,6.860000133514404,0.2800000011920929,-0.42000001668930054
1744304520.517,7,-4.480000019073486,-1.0499999523162842
1744304520.517,6.230000019073486,-10.079999923706055,-1.5399999618530273
1744304520.591,5.670000076293945,-12.109999656677246,-2.6600000858306885
1744304520.591,5.320000171661377,-11.34000015258789,-4.130000114440918
1744304520.591,4.130000114440918,-10.5,-5.740000247955322
1744304520.591,3.0799999237060547,-10.779999732971191,-6.860000133514404
1744304520.591,2.380000114440918,-11.40999984741211,-7.699999809265137
1744304520.591,1.75,-12.180000305175781,-8.819999694824219
1744304520.591,0.49000000953674316,-13.230000495910645,-9.449999809265137
1744304520.591,-0.7699999809265137,-13.230000495910645,-9.9399995803833
1744304520.665,-1.8899999856948853,-12.180000305175781,-10.430000305175781
1744304520.665,-2.5899999141693115,-9.869999885559082,-11.130000114440918
1744304520.665,-3.0799999237060547,-9.449999809265137,-11.6899995803833
1744304520.665,-3.1500000953674316,-11.130000114440918,-11.619999885559082
1744304520.665,-3.5,-15.819999694824219,-10.920000076293945
1744304520.665,-4.130000114440918,-18.899999618530273,-9.730000495910645
1744304520.665,-4.269999980926514,-19.8799991607666,-8.819999694824219
1744304520.665,-4.480000019073486,-19.25,-8.260000228881836
1744304520.74,-4.760000228881836,-18.969999313354492,-7.769999980926514
1744304520.74,-4.900000095367432,-20.719999313354492,-7.349999904632568
1744304520.74,-5.670000076293945,-24.43000030517578,-7.070000171661377
1744304520.74,-6.369999885559082,-28.350000381469727,-7.210000038146973
1744304520.74,-7.070000171661377,-30.799999237060547,-8.539999961853027
1744304520.74,-8.819999694824219,-31.079999923706055,-11.34000015258789
1744304520.74,-10.779999732971191,-29.469999313354492,-14.5600004196167
1744304520.74,-12.039999961853027,-27.229999542236328,-18.479999542236328
1744304520.815,-14.279999732971191,-25.549999237060547,-24.290000915527344
1744304520.815,-17.920000076293945,-12.8100004196167,-33.459999084472656
1744304520.815,-20.510000228881836,-33.38999938964844,-24.010000228881836
1744304520.815,-25.899999618530273,-36.68000030517578,-28.21000099182129
1744304520.815,-28.489999771118164,-37.65999984741211,-32.970001220703125
1744304520.815,-32.54999923706055,-37.72999954223633,-35.90999984741211
1744304520.815,-37.45000076293945,-33.880001068115234,-41.650001525878906
1744304520.815,-42.42000198364258,-33.25,-46.130001068115234
1744304520.889,-47.529998779296875,-36.2599983215332,-51.029998779296875
1744304520.889,-53.40999984741211,-40.67000198364258,-54.95000076293945
1744304520.889,-59.01000213623047,-44.029998779296875,-59.56999969482422
1744304520.889,-66.63999938964844,-51.59000015258789,-65.87000274658203
1744304520.889,-73.70999908447266,-51.72999954223633,-69.0199966430664
1744304520.889,-80.08000183105469,-53.20000076293945,-72.87000274658203
1744304520.889,-82.87999725341797,-57.81999969482422,-79.16999816894531
1744304520.889,-83.79000091552734,-65.44999694824219,-86.0999984741211
1744304520.963,-85.4000015258789,-73.43000030517578,-92.12000274658203
1744304520.963,-87.36000061035156,-77.91000366210938,-98.48999786376953
1744304520.963,-90.2300033569336,-81.41000366210938,-106.68000030517578
1744304520.963,-92.95999908447266,-81.2699966430664,-115.70999908447266
1744304520.963,-94.29000091552734,-76.09000396728516,-121.87000274658203
1744304520.963,-91.55999755859375,-58.939998626708984,-129.99000549316406
1744304520.963,-91.55999755859375,-45.849998474121094,-132.72000122070312
1744304520.963,-95.9000015258789,-46.47999954223633,-129.0800018310547
1744304521.037,-92.19000244140625,-27.719999313354492,-131.80999755859375
1744304521.037,-72.87000274658203,-23.65999984741211,-128.66000366210938
1744304521.037,-50.540000915527344,5.599999904632568,-131.1800079345703
1744304521.037,-30.100000381469727,50.959999084472656,-137.5500030517578
1744304521.037,-22.190000534057617,68.18000030517578,-144.27000427246094
1744304521.037,-26.25,83.16000366210938,-156.8699951171875
1744304521.037,-23.450000762939453,77.7699966430664,-151.89999389648438
1744304521.037,-24.56999969482422,31.010000228881836,-120.75
1744304521.112,-17.989999771118164,-41.93000030517578,-78.54000091552734
1744304521.112,-20.440000534057617,-118.09000396728516,-29.81999969482422
1744304521.112,-17.010000228881836,-158.8300018310547,-4.269999980926514
1744304521.112,-11.480000495910645,-164.9199981689453,-0.14000000059604645
1744304521.112,-8.819999694824219,-148.6800079345703,10.220000267028809
1744304521.112,-0.699999988079071,-114.80000305175781,23.239999771118164
1744304521.112,11.970000267028809,-79.30999755859375,35.42000198364258
1744304521.112,23.59000015258789,-55.720001220703125,46.40999984741211
1744304521.187,33.599998474121094,-41.15999984741211,58.65999984741211
1744304521.187,43.75,-29.96000099182129,72.94000244140625
1744304521.187,55.51000213623047,-19.040000915527344,86.7300033569336
1744304521.187,68.11000061035156,-15.119999885559082,101.29000091552734
1744304521.187,80.01000213623047,-16.729999542236328,115.98999786376953
1744304521.187,90.79000091552734,-20.860000610351562,131.11000061035156
1744304521.187,101.5,-22.96000099182129,144.5500030517578
1744304521.187,111.79000091552734,-21.700000762939453,156.8000030517578
1744304521.262,120.54000091552734,-19.25,167.86000061035156
1744304521.262,125.09000396728516,-16.8700008392334,177.10000610351562
1744304521.262,129.2899932861328,-11.6899995803833,183.25999450683594
1744304521.262,135.1699981689453,-4.550000190734863,186.89999389648438
1744304521.262,138.74000549316406,-2.380000114440918,192.4300079345703
1744304521.262,139.86000061035156,-3.640000104904175,198.4499969482422
1744304521.262,140.6999969482422,-4.480000019073486,202.44000244140625
1744304521.262,142.58999633789062,-0.3499999940395355,203.6300048828125
1744304521.336,145.11000061035156,11.899999618530273,203.2100067138672
1744304521.336,146.86000061035156,27.229999542236328,202.72000122070312
1744304521.336,147.97999572753906,41.5099983215332,203.6300048828125
1744304521.336,150.00999450683594,54.38999938964844,203.83999633789062
1744304521.336,151.33999633789062,69.37000274658203,201.6699981689453
1744304521.336,149.52000427246094,86.80000305175781,197.3300018310547
1744304521.336,145.0399932861328,104.16000366210938,191.30999755859375
1744304521.336,138.80999755859375,120.26000213623047,184.30999755859375
1744304521.411,131.6699981689453,137.1999969482422,177.72999572753906
1744304521.411,121.66000366210938,151.8300018310547,170.72999572753906
1744304521.411,109.97000122070312,166.8800048828125,161.13999938964844
1744304521.411,97.30000305175781,178.22000122070312,150.00999450683594
1744304521.411,84.41999816894531,184.52000427246094,138.52999877929688
1744304521.411,72.30999755859375,189.13999938964844,124.66999816894531
1744304521.411,63.630001068115234,196.2100067138672,109.97000122070312
1744304521.411,55.790000915527344,196.55999755859375,93.7300033569336
1744304521.486,48.439998626708984,185.22000122070312,73.08000183105469
1744304521.486,41.22999954223633,160.9300079345703,52.220001220703125
1744304521.486,34.439998626708984,125.16000366210938,31.219999313354492
1744304521.486,25.549999237060547,87.70999908447266,8.119999885559082
1744304521.486,14.279999732971191,64.61000061035156,-16.450000762939453
1744304521.486,2.0999999046325684,56.4900016784668,-40.810001373291016
1744304521.486,-7.980000019073486,56.630001068115234,-62.86000061035156
1744304521.486,-14,52.9900016784668,-81.9000015258789
1744304521.561,-17.079999923706055,48.09000015258789,-99.54000091552734
1744304521.561,-9.380000114440918,110.38999938964844,-131.8800048828125
1744304521.561,2.0999999046325684,-15.890000343322754,-99.19000244140625
1744304521.561,-29.96000099182129,-44.79999923706055,-45.92000198364258
1744304521.561,-1.3300000429153442,85.05000305175781,-68.38999938964844
1744304521.561,5.949999809265137,49.42000198364258,-85.95999908447266
1744304521.561,1.0499999523162842,76.37000274658203,-138.74000549316406
1744304521.561,-8.050000190734863,34.790000915527344,-143.00999450683594
1744304521.636,-3.7799999713897705,-39.7599983215332,-75.52999877929688
1744304521.636,-11.760000228881836,-62.15999984741211,-56.349998474121094
1744304521.636,-10.220000267028809,-53.47999954223633,-68.52999877929688
1744304521.636,-7.28000020980835,-33.880001068115234,-64.88999938964844
1744304521.636,1.0499999523162842,-13.859999656677246,-51.310001373291016
1744304521.636,4.760000228881836,-13.09000015258789,-43.2599983215332
1744304521.636,-2.0299999713897705,-21,-38.220001220703125
1744304521.636,4.619999885559082,-14.5600004196167,-25.059999465942383
1744304521.711,7.909999847412109,-13.15999984741211,-16.170000076293945
1744304521.711,8.75,-7.28000020980835,-13.020000457763672
1744304521.711,11.270000457763672,-11.6899995803833,-9.170000076293945
1744304521.711,13.720000267028809,-21.979999542236328,-7.699999809265137
1744304521.711,13.930000305175781,-29.329999923706055,-4.130000114440918
1744304521.711,13.15999984741211,-27.93000030517578,-2.5199999809265137
1744304521.711,11.0600004196167,-21.979999542236328,-5.320000171661377
1744304521.711,10.220000267028809,-18.829999923706055,-5.039999961853027
1744304521.786,7.420000076293945,-21.280000686645508,-2.5899999141693115
1744304521.786,5.740000247955322,-17.780000686645508,-1.8899999856948853
1744304521.786,4.550000190734863,-13.440000534057617,-2.7300000190734863
1744304521.786,4.059999942779541,-11.760000228881836,-4.059999942779541
1744304521.786,5.110000133514404,-12.039999961853027,-5.670000076293945
1744304521.786,6.159999847412109,-11.760000228881836,-6.929999828338623
1744304521.786,6.789999961853027,-7.769999980926514,-8.329999923706055
1744304521.786,5.949999809265137,-3.2899999618530273,-10.850000381469727
1744304521.861,4.900000095367432,-0.9100000262260437,-12.949999809265137
1744304521.861,3.569999933242798,-3.5,-13.649999618530273
1744304521.861,2.0999999046325684,-8.399999618530273,-13.510000228881836
1744304521.861,0.9800000190734863,-10.430000305175781,-13.440000534057617
1744304521.861,0.3499999940395355,-9.869999885559082,-14.140000343322754
1744304521.861,0.21000000834465027,-7.139999866485596,-15.960000038146973
1744304521.861,0.3499999940395355,-3.640000104904175,-17.219999313354492
1744304521.861,-0.07000000029802322,1.5399999618530273,-18.200000762939453
1744304521.936,-0.9100000262260437,3.430000066757202,-18.6200008392334
1744304521.936,-1.5399999618530273,1.5399999618530273,-18.270000457763672
1744304521.936,-2.450000047683716,-2.799999952316284,-16.3799991607666
1744304521.936,-3.640000104904175,-7.980000019073486,-14.5600004196167
1744304521.936,-3.8499999046325684,-10.989999771118164,-12.880000114440918
1744304521.936,-3.640000104904175,-12.949999809265137,-11.199999809265137
1744304521.936,-3.5,-13.230000495910645,-9.449999809265137
1744304521.936,-3.1500000953674316,-13.369999885559082,-8.1899995803833
1744304522.011,-2.450000047683716,-11.0600004196167,-6.720000267028809
1744304522.011,-2.5199999809265137,-7.490000247955322,-5.110000133514404
1744304522.011,-2.450000047683716,-6.510000228881836,-3.990000009536743
1744304522.011,-2.0999999046325684,-4.760000228881836,-3.430000066757202
1744304522.011,-1.9600000381469727,-4.96999979019165,-2.240000009536743
1744304522.011,-1.4700000286102295,-4.760000228881836,-0.3499999940395355
1744304522.011,-1.6100000143051147,-3.8499999046325684,0.5600000023841858
1744304522.011,-2.870000123977661,-2.0299999713897705,-0.49000000953674316
1744304522.086,-4.130000114440918,0.699999988079071,-0.3499999940395355
1744304522.086,-5.670000076293945,0.9100000262260437,0
1744304522.086,-5.949999809265137,0.21000000834465027,-0.9800000190734863
1744304522.086,-6.090000152587891,-2.6600000858306885,-1.6100000143051147
1744304522.086,-6.720000267028809,-6.159999847412109,-2.450000047683716
1744304522.086,-6.440000057220459,-8.050000190734863,-2.450000047683716
1744304522.086,-5.949999809265137,-6.789999961853027,-3.009999990463257
1744304522.086,-5.599999904632568,-4.550000190734863,-4.550000190734863
1744304522.161,-6.090000152587891,-1.6100000143051147,-5.740000247955322
1744304522.161,-5.809999942779541,-1.399999976158142,-5.949999809265137
1744304522.161,-6.369999885559082,-1.5399999618530273,-6.369999885559082
1744304522.161,-6.929999828338623,-3.9200000762939453,-6.440000057220459
1744304522.161,-7.420000076293945,-5.809999942779541,-6.369999885559082
1744304522.161,-8.260000228881836,-4.96999979019165,-6.230000019073486
1744304522.161,-8.960000038146973,-2.7300000190734863,-6.300000190734863
1744304522.161,-8.680000305175781,-1.6100000143051147,-7.349999904632568
1744304522.236,-8.75,-1.3300000429153442,-7.909999847412109
1744304522.236,-8.819999694824219,-2.309999942779541,-7.909999847412109
1744304522.236,-8.680000305175781,-3.9200000762939453,-8.470000267028809
1744304522.236,-8.399999618530273,-3.9200000762939453,-8.260000228881836
1744304522.236,-7.840000152587891,-3.7799999713897705,-8.329999923706055
1744304522.236,-7.490000247955322,-2.940000057220459,-8.260000228881836
1744304522.236,-6.510000228881836,-2.5899999141693115,-7.559999942779541
1744304522.236,-5.949999809265137,-2.5199999809265137,-7.139999866485596
1744304522.311,-5.53000020980835,-3.3600001335144043,-6.440000057220459
1744304522.311,-4.690000057220459,-4.409999847412109,-5.320000171661377
1744304522.311,-4.550000190734863,-5.039999961853027,-3.7799999713897705
1744304522.311,-3.9200000762939453,-6.159999847412109,-2.799999952316284
1744304522.311,-3.2200000286102295,-6.369999885559082,-1.4700000286102295
1744304522.311,-3.009999990463257,-5.809999942779541,-1.1200000047683716
1744304522.311,-2.309999942779541,-4.340000152587891,-0.5600000023841858
1744304522.311,-2.5199999809265137,-3.009999990463257,-0.699999988079071
1744304522.386,-1.9600000381469727,-1.6800000667572021,-0.9100000262260437
1744304522.386,-1.8899999856948853,-0.21000000834465027,-1.5399999618530273
1744304522.386,-2.0299999713897705,-0.14000000059604645,-1.8200000524520874
1744304522.386,-1.9600000381469727,-0.2800000011920929,-2.309999942779541
1744304522.386,-2.0299999713897705,-0.9100000262260437,-2.6600000858306885
1744304522.386,-2.799999952316284,-1.8899999856948853,-3.3600001335144043
1744304522.386,-3.0799999237060547,-3.0799999237060547,-3.7799999713897705
1744304522.386,-3.7100000381469727,-2.799999952316284,-4.059999942779541
1744304522.461,-4.409999847412109,-3.2899999618530273,-4.340000152587891
1744304522.461,-4.409999847412109,-2.240000009536743,-5.25
1744304522.461,-4.619999885559082,-2.380000114440918,-5.599999904632568
1744304522.461,-5.110000133514404,-1.2599999904632568,-5.53000020980835
1744304522.461,-5.460000038146973,-1.8200000524520874,-5.809999942779541
1744304522.461,-5.320000171661377,-2.380000114440918,-5.53000020980835
1744304522.461,-5.460000038146973,-3.2200000286102295,-5.670000076293945
1744304522.461,-4.96999979019165,-2.940000057220459,-5.670000076293945
1744304522.536,-4.760000228881836,-2.5899999141693115,-5.389999866485596
1744304522.536,-4.409999847412109,-1.9600000381469727,-5.039999961853027
1744304522.536,-3.9200000762939453,-1.9600000381469727,-4.409999847412109
1744304522.536,-3.7100000381469727,-1.9600000381469727,-3.8499999046325684
1744304522.536,-3.1500000953674316,-1.6100000143051147,-3.009999990463257
1744304522.536,-2.450000047683716,-1.2599999904632568,-2.380000114440918
1744304522.536,-2.0299999713897705,-0.49000000953674316,-1.6800000667572021
1744304522.536,-1.6100000143051147,-0.14000000059604645,-1.1200000047683716
1744304522.611,-0.9800000190734863,0.14000000059604645,-0.5600000023841858
1744304522.611,-1.0499999523162842,0.21000000834465027,-0.2800000011920929
1744304522.611,-0.3499999940395355,0.14000000059604645,0
1744304522.611,-0.14000000059604645,0.42000001668930054,-0.07000000029802322
1744304522.611,-0.07000000029802322,0.21000000834465027,-0.2800000011920929
1744304522.611,-0.21000000834465027,0.6299999952316284,-0.7699999809265137
1744304522.611,-0.07000000029802322,0.42000001668930054,-1.1200000047683716
1744304522.611,-0.21000000834465027,-0.14000000059604645,-1.4700000286102295
1744304522.686,-0.42000001668930054,-0.07000000029802322,-1.9600000381469727
1744304522.686,-0.5600000023841858,-0.42000001668930054,-2.240000009536743
1744304522.686,-0.699999988079071,-0.42000001668930054,-2.6600000858306885
1744304522.686,-0.7699999809265137,-0.21000000834465027,-3.1500000953674316
1744304522.686,-0.9800000190734863,0,-3.430000066757202
1744304522.686,-0.9800000190734863,-0.14000000059604645,-3.569999933242798
1744304522.686,-1.0499999523162842,0.42000001668930054,-3.430000066757202
1744304522.686,-1.190000057220459,0.2800000011920929,-3.569999933242798
1744304522.761,-1.1200000047683716,-0.42000001668930054,-3.2899999618530273
1744304522.761,-1.0499999523162842,-0.5600000023841858,-2.940000057220459
1744304522.761,-0.9100000262260437,-0.14000000059604645,-2.7300000190734863
1744304522.761,-0.7699999809265137,-0.3499999940395355,-2.450000047683716
1744304522.761,-0.8400000333786011,-0.8400000333786011,-2.1700000762939453
1744304522.761,-0.9100000262260437,-1.6800000667572021,-1.8899999856948853
1744304522.761,-0.9800000190734863,-2.450000047683716,-1.6100000143051147
1744304522.761,-0.7699999809265137,-2.450000047683716,-1.5399999618530273
1744304522.836,-0.6299999952316284,-1.5399999618530273,-1.399999976158142
1744304522.836,-0.5600000023841858,-1.0499999523162842,-1.4700000286102295
1744304522.836,-0.5600000023841858,-0.9100000262260437,-1.399999976158142
1744304522.836,-0.3499999940395355,-1.190000057220459,-0.9100000262260437
1744304522.836,-0.07000000029802322,-1.4700000286102295,-0.7699999809265137
1744304522.836,-0.07000000029802322,-1.3300000429153442,-0.6299999952316284
1744304522.836,-0.07000000029802322,-1.3300000429153442,-0.2800000011920929
1744304522.836,0.14000000059604645,-1.8899999856948853,-0.21000000834465027
1744304522.911,-0.07000000029802322,-2.450000047683716,-0.14000000059604645
1744304522.911,0.2800000011920929,-3.009999990463257,-0.14000000059604645
1744304522.911,0.21000000834465027,-3.430000066757202,0.07000000029802322
1744304522.911,0.14000000059604645,-3.5,0.14000000059604645
1744304522.911,0.49000000953674316,-3.569999933242798,0.21000000834465027
1744304522.911,0.49000000953674316,-3.2200000286102295,0.14000000059604645
1744304522.911,0.8400000333786011,-3.0799999237060547,-0.07000000029802322
1744304522.911,1.399999976158142,-3.3600001335144043,0.3499999940395355
1744304522.986,1.6800000667572021,-3.1500000953674316,0.7699999809265137
1744304522.986,1.9600000381469727,-3.0799999237060547,0.8400000333786011
1744304522.986,2.309999942779541,-3.1500000953674316,1.0499999523162842
1744304522.986,2.5199999809265137,-2.450000047683716,1.0499999523162842
1744304522.986,2.799999952316284,-1.9600000381469727,1.1200000047683716
1744304522.986,2.870000123977661,-1.399999976158142,1.2599999904632568
1744304522.986,2.870000123977661,-1.5399999618530273,1.1200000047683716
1744304522.986,3.2200000286102295,-1.6100000143051147,0.9800000190734863
1744304523.061,3.3600001335144043,-0.9100000262260437,0.9800000190734863
1744304523.061,3.1500000953674316,-0.6299999952316284,0.699999988079071
1744304523.061,3.0799999237060547,-0.49000000953674316,0.699999988079071
1744304523.061,2.870000123977661,-0.5600000023841858,0.6299999952316284
1744304523.061,2.870000123977661,-0.5600000023841858,0.2800000011920929
1744304523.061,2.870000123977661,0.07000000029802322,0
1744304523.061,2.7300000190734863,0.8400000333786011,-0.49000000953674316
1744304523.061,2.799999952316284,1.399999976158142,-0.9800000190734863
1744304523.136,2.799999952316284,2.1700000762939453,-1.399999976158142
1744304523.136,2.450000047683716,2.450000047683716,-1.8200000524520874
1744304523.136,2.450000047683716,2.7300000190734863,-2.0299999713897705
1744304523.136,2.380000114440918,2.6600000858306885,-2.309999942779541
1744304523.136,2.309999942779541,2.799999952316284,-2.7300000190734863
1744304523.136,2.1700000762939453,3.3600001335144043,-2.870000123977661
1744304523.136,2.1700000762939453,3.2899999618530273,-3.1500000953674316
1744304523.136,1.9600000381469727,3.569999933242798,-3.009999990463257
1744304523.211,2.0299999713897705,3.430000066757202,-2.870000123977661
1744304523.211,2.1700000762939453,2.5199999809265137,-3.009999990463257
1744304523.211,2.380000114440918,1.8200000524520874,-2.5899999141693115
1744304523.211,2.5199999809265137,2.309999942779541,-2.5199999809265137
1744304523.211,2.380000114440918,2.5199999809265137,-2.6600000858306885
1744304523.211,2.7300000190734863,2.799999952316284,-2.450000047683716
1744304523.211,2.5899999141693115,3.009999990463257,-2.5199999809265137
1744304523.211,2.7300000190734863,2.799999952316284,-2.380000114440918
1744304523.286,2.6600000858306885,2.5899999141693115,-2.380000114440918
1744304523.286,2.870000123977661,2.309999942779541,-2.450000047683716
1744304523.286,3.1500000953674316,3.0799999237060547,-2.450000047683716
1744304523.286,3.009999990463257,4.480000019073486,-3.0799999237060547
1744304523.286,2.940000057220459,5.25,-3.1500000953674316
1744304523.286,2.7300000190734863,5.740000247955322,-3.3600001335144043
1744304523.286,2.7300000190734863,5.25,-3.3600001335144043
1744304523.286,2.450000047683716,4.619999885559082,-3.2200000286102295
1744304523.361,2.0999999046325684,3.3600001335144043,-3.0799999237060547
1744304523.361,1.6100000143051147,2.380000114440918,-3.1500000953674316
1744304523.361,1.4700000286102295,2.1700000762939453,-2.870000123977661
1744304523.361,0.8400000333786011,2.0299999713897705,-3.2899999618530273
1744304523.361,1.0499999523162842,2.309999942779541,-3.2200000286102295
1744304523.361,0.21000000834465027,2.380000114440918,-3.7100000381469727
1744304523.361,0,1.9600000381469727,-3.9200000762939453
1744304523.361,-0.14000000059604645,2.799999952316284,-4.480000019073486
1744304523.436,0.2800000011920929,2.6600000858306885,-4.829999923706055
1744304523.436,-0.14000000059604645,3.7100000381469727,-4.760000228881836
1744304523.436,-0.3499999940395355,3.640000104904175,-5.179999828338623
1744304523.436,0.21000000834465027,3.9200000762939453,-4.760000228881836
1744304523.436,0.21000000834465027,4.409999847412109,-4.690000057220459
1744304523.436,0.42000001668930054,3.7100000381469727,-4.760000228881836
1744304523.436,0.49000000953674316,3.569999933242798,-4.199999809265137
1744304523.436,0.6299999952316284,3.9200000762939453,-4.059999942779541
1744304523.511,0.42000001668930054,3.7799999713897705,-4.409999847412109
1744304523.511,0.699999988079071,4.199999809265137,-4.269999980926514
1744304523.511,0.21000000834465027,4.96999979019165,-4.269999980926514
1744304523.511,0,4.340000152587891,-4.619999885559082
1744304523.511,-0.14000000059604645,3.7799999713897705,-4.619999885559082
1744304523.511,-0.21000000834465027,3.1500000953674316,-5.039999961853027
1744304523.511,-0.07000000029802322,2.450000047683716,-5.039999961853027
1744304523.511,-0.7699999809265137,1.4700000286102295,-5.179999828338623
1744304523.586,-0.6299999952316284,0.9100000262260437,-5.179999828338623
1744304523.586,-0.6299999952316284,0.42000001668930054,-4.900000095367432
1744304523.586,-0.42000001668930054,-0.6299999952316284,-4.619999885559082
1744304523.586,-0.42000001668930054,-1.6800000667572021,-3.990000009536743
1744304523.586,-0.5600000023841858,-3.1500000953674316,-3.430000066757202
1744304523.586,-0.2800000011920929,-3.7100000381469727,-2.7300000190734863
1744304523.586,-0.21000000834465027,-4.480000019073486,-2.240000009536743
1744304523.586,0.21000000834465027,-4.900000095367432,-1.3300000429153442
1744304523.661,0.14000000059604645,-5.880000114440918,-0.9100000262260437
1744304523.661,0.6299999952316284,-6.720000267028809,0
1744304523.661,0.8400000333786011,-5.389999866485596,0.7699999809265137
1744304523.661,1.1200000047683716,-4.130000114440918,0.49000000953674316
1744304523.661,1.190000057220459,-3.0799999237060547,0.7699999809265137
1744304523.661,0.7699999809265137,-3.8499999046325684,1.0499999523162842
1744304523.661,0.49000000953674316,-6.720000267028809,1.6800000667572021
1744304523.661,0.14000000059604645,-7.909999847412109,2.0299999713897705
1744304523.736,-0.2800000011920929,-7.840000152587891,1.9600000381469727
1744304523.736,-0.7699999809265137,-7.070000171661377,1.6800000667572021
1744304523.736,-1.0499999523162842,-6.510000228881836,1.75
1744304523.736,-1.4700000286102295,-6.440000057220459,1.0499999523162842
1744304523.736,-1.4700000286102295,-6.369999885559082,0.3499999940395355
1744304523.736,-1.75,-6.090000152587891,-0.14000000059604645
1744304523.736,-1.9600000381469727,-6.019999980926514,-0.6299999952316284
1744304523.736,-2.309999942779541,-5.25,-1.5399999618530273
1744304523.811,-2.450000047683716,-4.619999885559082,-2.240000009536743
1744304523.811,-2.5199999809265137,-3.3600001335144043,-2.5199999809265137
1744304523.811,-2.940000057220459,-3.8499999046325684,-2.870000123977661
1744304523.811,-2.940000057220459,-6.159999847412109,-2.799999952316284
1744304523.811,-3.1500000953674316,-7.980000019073486,-2.240000009536743
1744304523.811,-3.1500000953674316,-8.399999618530273,-2.0999999046325684
1744304523.811,-3.2899999618530273,-7.139999866485596,-2.380000114440918
1744304523.811,-3.0799999237060547,-5.110000133514404,-2.5899999141693115
1744304523.886,-2.5899999141693115,-4.409999847412109,-2.5199999809265137
1744304523.886,-2.450000047683716,-5.039999961853027,-2.450000047683716
1744304523.886,-2.1700000762939453,-5.320000171661377,-2.1700000762939453
1744304523.886,-2.0299999713897705,-5.039999961853027,-2.309999942779541
1744304523.886,-1.6800000667572021,-3.7799999713897705,-2.380000114440918
1744304523.886,-1.0499999523162842,-3.1500000953674316,-2.870000123977661
1744304523.886,-1.190000057220459,-3.2200000286102295,-2.799999952316284
1744304523.886,-1.1200000047683716,-4.340000152587891,-2.7300000190734863
1744304523.961,-1.1200000047683716,-5.039999961853027,-2.450000047683716
1744304523.961,-1.4700000286102295,-5.809999942779541,-2.0299999713897705
1744304523.961,-0.9100000262260437,-6.440000057220459,-1.9600000381469727
1744304523.961,-1.0499999523162842,-6.369999885559082,-1.6800000667572021
1744304523.961,-0.699999988079071,-6.369999885559082,-1.399999976158142
1744304523.961,-0.21000000834465027,-6.159999847412109,-2.0999999046325684
1744304523.961,0,-5.110000133514404,-1.6100000143051147
1744304523.961,0.14000000059604645,-5.25,-1.8200000524520874
1744304524.036,0.3499999940395355,-5.740000247955322,-1.399999976158142
1744304524.036,0.5600000023841858,-5.599999904632568,-1.0499999523162842
1744304524.036,0.5600000023841858,-5.599999904632568,-1.0499999523162842
1744304524.036,1.0499999523162842,-4.760000228881836,-0.5600000023841858
1744304524.036,0.9800000190734863,-4.550000190734863,-0.699999988079071
1744304524.036,1.4700000286102295,-4.130000114440918,0
1744304524.036,1.1200000047683716,-3.990000009536743,-0.07000000029802322
1744304524.036,1.6800000667572021,-3.9200000762939453,-0.42000001668930054
1744304524.111,1.6100000143051147,-3.569999933242798,-0.49000000953674316
1744304524.111,1.3300000429153442,-3.009999990463257,-1.0499999523162842
1744304524.111,1.399999976158142,-1.6800000667572021,-1.75
1744304524.111,1.190000057220459,-0.6299999952316284,-2.240000009536743
1744304524.111,0.7699999809265137,-0.699999988079071,-3.009999990463257
1744304524.111,0.5600000023841858,-2.0299999713897705,-3.3600001335144043
1744304524.111,0.21000000834465027,-2.1700000762939453,-3.640000104904175
1744304524.111,-0.07000000029802322,-1.1200000047683716,-4.130000114440918
1744304524.186,-0.14000000059604645,0.699999988079071,-4.690000057220459
1744304524.186,-0.14000000059604645,2.1700000762939453,-5.25
1744304524.186,-0.3499999940395355,2.870000123977661,-5.460000038146973
1744304524.186,-0.49000000953674316,2.6600000858306885,-5.389999866485596
1744304524.186,-0.49000000953674316,2.240000009536743,-5.25
1744304524.186,-0.6299999952316284,2.0999999046325684,-5.110000133514404
1744304524.186,-0.699999988079071,1.9600000381469727,-5.039999961853027
1744304524.186,-0.9800000190734863,1.9600000381469727,-4.550000190734863
1744304524.261,-1.2599999904632568,1.5399999618530273,-4.550000190734863
1744304524.261,-1.399999976158142,0.49000000953674316,-4.199999809265137
1744304524.261,-1.75,-0.5600000023841858,-3.8499999046325684
1744304524.261,-1.6800000667572021,-1.0499999523162842,-3.7799999713897705
1744304524.261,-1.5399999618530273,-1.3300000429153442,-3.640000104904175
1744304524.261,-1.6100000143051147,-0.9100000262260437,-3.7100000381469727
1744304524.261,-1.399999976158142,-1.190000057220459,-3.5
1744304524.261,-1.2599999904632568,-1.4700000286102295,-2.870000123977661
1744304524.335,-1.399999976158142,-2.309999942779541,-2.940000057220459
1744304524.335,-0.9100000262260437,-3.569999933242798,-2.799999952316284
1744304524.335,-0.8400000333786011,-3.1500000953674316,-2.0999999046325684
1744304524.335,-1.0499999523162842,-3.0799999237060547,-2.450000047683716
1744304524.335,-0.2800000011920929,-3.3600001335144043,-2.0999999046325684
1744304524.335,-0.42000001668930054,-2.240000009536743,-2.6600000858306885
1744304524.335,0.3499999940395355,-1.0499999523162842,-2.870000123977661
1744304524.335,0.3499999940395355,0.2800000011920929,-3.009999990463257
1744304524.409,0.42000001668930054,0.699999988079071,-3.1500000953674316
1744304524.409,0.7699999809265137,0.6299999952316284,-2.940000057220459
1744304524.409,0.8400000333786011,0.42000001668930054,-3.009999990463257
1744304524.409,0.7699999809265137,0.14000000059604645,-2.940000057220459
1744304524.409,0.7699999809265137,-0.14000000059604645,-3.009999990463257
1744304524.409,0.2800000011920929,-0.2800000011920929,-2.940000057220459
1744304524.409,0.14000000059604645,-0.3499999940395355,-3.2899999618530273
1744304524.409,-0.07000000029802322,-0.7699999809265137,-3.2899999618530273
1744304524.483,-0.3499999940395355,-1.0499999523162842,-3.640000104904175
1744304524.483,-0.699999988079071,-1.399999976158142,-3.7799999713897705
1744304524.483,-0.8400000333786011,-1.4700000286102295,-4.269999980926514
1744304524.483,-1.1200000047683716,-0.9800000190734863,-4.829999923706055
1744304524.483,-1.4700000286102295,-0.3499999940395355,-5.389999866485596
1744304524.483,-1.4700000286102295,0.21000000834465027,-5.599999904632568
1744304524.483,-2.0999999046325684,0.6299999952316284,-5.949999809265137
1744304524.483,-2.450000047683716,0.42000001668930054,-6.440000057220459
1744304524.557,-2.450000047683716,0.49000000953674316,-6.789999961853027
1744304524.557,-2.799999952316284,0.9100000262260437,-6.929999828338623
1744304524.557,-3.009999990463257,0.9100000262260437,-7.210000038146973
1744304524.557,-2.7300000190734863,0.7699999809265137,-6.789999961853027
1744304524.557,-2.870000123977661,0.5600000023841858,-6.510000228881836
1744304524.557,-2.5899999141693115,-0.5600000023841858,-6.019999980926514
1744304524.557,-2.5199999809265137,-1.1200000047683716,-5.320000171661377
1744304524.557,-2.450000047683716,-1.6100000143051147,-4.96999979019165
1744304524.631,-1.6800000667572021,-1.9600000381469727,-4.550000190734863
1744304524.631,-1.4700000286102295,-1.6100000143051147,-4.269999980926514
1744304524.631,-1.190000057220459,-1.4700000286102295,-3.990000009536743
1744304524.631,-0.699999988079071,-1.9600000381469727,-3.7100000381469727
1744304524.631,-0.5600000023841858,-2.5899999141693115,-3.3600001335144043
1744304524.631,-0.42000001668930054,-2.940000057220459,-3.2200000286102295
1744304524.631,-0.3499999940395355,-2.380000114440918,-3.2200000286102295
1744304524.631,-0.699999988079071,-1.8899999856948853,-3.430000066757202
1744304524.706,-0.42000001668930054,-1.75,-3.640000104904175
1744304524.706,-1.190000057220459,-2.309999942779541,-3.0799999237060547
1744304524.706,-0.49000000953674316,-2.799999952316284,-3.640000104904175
1744304524.706,-1.2599999904632568,-2.6600000858306885,-4.760000228881836
1744304524.706,-0.6299999952316284,-2.5899999141693115,-2.870000123977661
1744304524.706,-1.9600000381469727,-3.3600001335144043,-4.059999942779541
1744304524.706,-0.7699999809265137,-4.690000057220459,-3.430000066757202
1744304524.706,-1.2599999904632568,-3.569999933242798,-4.059999942779541
1744304524.78,-1.399999976158142,-1.1200000047683716,-4.269999980926514
1744304524.78,-1.190000057220459,-0.7699999809265137,-3.990000009536743
1744304524.78,-1.190000057220459,-2.799999952316284,-4.130000114440918
1744304524.78,-1.4700000286102295,-4.059999942779541,-2.799999952316284
1744304524.78,-0.14000000059604645,-4.340000152587891,-3.640000104904175
1744304524.78,-1.75,-3.009999990463257,-3.640000104904175
1744304524.78,-0.21000000834465027,-3.1500000953674316,-2.1700000762939453
1744304524.78,-1.2599999904632568,-2.870000123977661,-3.2899999618530273
1744304524.854,-0.699999988079071,-3.7100000381469727,-1.8200000524520874
1744304524.854,-0.5600000023841858,-2.870000123977661,-2.870000123977661
1744304524.854,-0.3499999940395355,-2.0299999713897705,-1.8899999856948853
1744304524.854,-0.21000000834465027,-1.6100000143051147,-2.450000047683716
1744304524.854,-0.2800000011920929,-2.0999999046325684,-1.3300000429153442
1744304524.854,-0.14000000059604645,-2.5899999141693115,-0.9100000262260437
1744304524.854,-0.07000000029802322,-3.0799999237060547,-0.7699999809265137
1744304524.854,0.07000000029802322,-2.799999952316284,-0.49000000953674316
1744304524.928,-0.07000000029802322,-2.380000114440918,0.21000000834465027
1744304524.928,-0.14000000059604645,-2.5199999809265137,0.14000000059604645
1744304524.928,-0.42000001668930054,-3.2899999618530273,0.8400000333786011
1744304524.928,-0.6299999952316284,-4.059999942779541,0.8400000333786011
1744304524.928,-0.6299999952316284,-4.409999847412109,0.9800000190734863
1744304524.928,-0.3499999940395355,-3.569999933242798,0.8400000333786011
1744304524.928,-0.5600000023841858,-3.3600001335144043,0.7699999809265137
1744304524.928,-0.42000001668930054,-4.059999942779541,0.8400000333786011
1744304525.002,-0.2800000011920929,-4.550000190734863,0.5600000023841858
1744304525.002,-0.2800000011920929,-4.760000228881836,0.6299999952316284
1744304525.002,0,-4.619999885559082,0.8400000333786011
1744304525.002,0.07000000029802322,-3.9200000762939453,0.49000000953674316
1744304525.002,0.42000001668930054,-3.430000066757202,0.5600000023841858
1744304525.002,0.699999988079071,-3.0799999237060547,0.8400000333786011
1744304525.002,0.6299999952316284,-2.6600000858306885,0.7699999809265137
1744304525.002,0.9100000262260437,-2.309999942779541,1.190000057220459
1744304525.076,0.8400000333786011,-1.9600000381469727,1.190000057220459
1744304525.076,0.8400000333786011,-1.399999976158142,1.3300000429153442
1744304525.076,1.1200000047683716,-0.8400000333786011,1.2599999904632568
1744304525.076,0.9800000190734863,0,1.1200000047683716
1744304525.076,0.9800000190734863,0.8400000333786011,0.699999988079071
1744304525.076,0.9100000262260437,1.0499999523162842,0.5600000023841858
1744304525.076,0.8400000333786011,1.399999976158142,0.14000000059604645
1744304525.076,0.699999988079071,1.1200000047683716,-0.14000000059604645
1744304525.15,0.5600000023841858,0.6299999952316284,-0.07000000029802322
1744304525.15,0.42000001668930054,-0.21000000834465027,0
1744304525.15,0.3499999940395355,-0.9800000190734863,0
1744304525.15,0.14000000059604645,-1.4700000286102295,0.07000000029802322
1744304525.15,0.07000000029802322,-1.0499999523162842,-0.21000000834465027
1744304525.15,-0.21000000834465027,-0.8400000333786011,-0.49000000953674316
1744304525.15,-0.49000000953674316,-1.1200000047683716,-0.6299999952316284
1744304525.15,-0.5600000023841858,-1.2599999904632568,-0.7699999809265137
1744304525.224,-0.699999988079071,-1.0499999523162842,-1.190000057220459
1744304525.224,-0.9100000262260437,-0.49000000953674316,-1.4700000286102295
1744304525.224,-0.9100000262260437,-0.699999988079071,-1.399999976158142
1744304525.224,-0.9100000262260437,-1.2599999904632568,-1.3300000429153442
1744304525.224,-1.1200000047683716,-1.4700000286102295,-1.0499999523162842
1744304525.224,-1.2599999904632568,-1.6800000667572021,-1.2599999904632568
1744304525.224,-1.1200000047683716,-1.8899999856948853,-0.7699999809265137
1744304525.224,-0.9800000190734863,-1.4700000286102295,-0.5600000023841858
1744304525.298,-0.8400000333786011,-1.6800000667572021,-0.6299999952316284
1744304525.298,-0.6299999952316284,-1.6100000143051147,-0.42000001668930054
1744304525.298,-0.7699999809265137,-1.3300000429153442,-0.699999988079071
1744304525.298,-0.42000001668930054,-2.309999942779541,-0.49000000953674316
1744304525.298,-0.6299999952316284,-3.2899999618530273,-0.3499999940395355
1744304525.298,-0.49000000953674316,-3.8499999046325684,-0.3499999940395355
1744304525.298,-0.49000000953674316,-3.990000009536743,-0.3499999940395355
1744304525.298,-0.2800000011920929,-3.8499999046325684,-0.42000001668930054
1744304525.372,-0.14000000059604645,-3.990000009536743,-0.14000000059604645
1744304525.372,-0.2800000011920929,-5.039999961853027,-0.07000000029802322
1744304525.372,-0.2800000011920929,-6.720000267028809,0.3499999940395355
1744304525.372,-0.3499999940395355,-7.420000076293945,0.8400000333786011
1744304525.372,-0.3499999940395355,-7.070000171661377,1.2599999904632568
1744304525.372,-0.3499999940395355,-6.230000019073486,1.1200000047683716
1744304525.372,0,-5.320000171661377,1.190000057220459
1744304525.372,-0.07000000029802322,-4.900000095367432,0.9100000262260437
1744304525.446,0.14000000059604645,-5.039999961853027,1.0499999523162842
1744304525.446,0.07000000029802322,-4.480000019073486,0.7699999809265137
1744304525.446,0.21000000834465027,-3.3600001335144043,0.6299999952316284
1744304525.446,0.14000000059604645,-1.4700000286102295,0
1744304525.446,0.2800000011920929,-0.6299999952316284,-0.14000000059604645
1744304525.446,-0.14000000059604645,0,-0.3499999940395355
1744304525.446,-0.14000000059604645,-0.42000001668930054,-0.42000001668930054
1744304525.446,-0.2800000011920929,-0.8400000333786011,-0.2800000011920929
1744304525.52,-0.42000001668930054,-1.3300000429153442,-0.21000000834465027
1744304525.52,-0.49000000953674316,-1.75,-0.21000000834465027
1744304525.52,-0.49000000953674316,-2.0999999046325684,-0.14000000059604645
1744304525.52,-0.49000000953674316,-1.6800000667572021,-0.42000001668930054
1744304525.52,-0.5600000023841858,-1.190000057220459,-0.7699999809265137
1744304525.52,-0.2800000011920929,-0.7699999809265137,-0.8400000333786011
1744304525.52,-0.42000001668930054,-0.42000001668930054,-1.1200000047683716
1744304525.52,-0.42000001668930054,-0.3499999940395355,-1.190000057220459
1744304525.594,-0.42000001668930054,-0.21000000834465027,-1.1200000047683716
1744304525.594,-0.5600000023841858,-0.21000000834465027,-1.2599999904632568
1744304525.594,-0.6299999952316284,-0.42000001668930054,-1.3300000429153442
1744304525.594,-0.8400000333786011,-0.6299999952316284,-1.399999976158142
1744304525.594,-0.9800000190734863,-0.8400000333786011,-1.4700000286102295
1744304525.594,-1.1200000047683716,-1.1200000047683716,-1.3300000429153442
1744304525.594,-1.3300000429153442,-0.9100000262260437,-1.4700000286102295
1744304525.594,-1.399999976158142,-0.49000000953674316,-1.5399999618530273
1744304525.668,-1.6800000667572021,-0.2800000011920929,-1.75
1744304525.668,-1.4700000286102295,0.42000001668930054,-2.5899999141693115
1744304525.668,-2.0299999713897705,1.2599999904632568,-3.009999990463257
1744304525.668,-1.9600000381469727,0.6299999952316284,-2.0999999046325684
1744304525.668,-2.5899999141693115,-0.42000001668930054,-2.7300000190734863
1744304525.668,-1.8899999856948853,-1.1200000047683716,-2.309999942779541
1744304525.668,-1.9600000381469727,-0.42000001668930054,-2.870000123977661
1744304525.668,-1.9600000381469727,1.4700000286102295,-2.870000123977661
1744304525.742,-2.0299999713897705,2.240000009536743,-3.1500000953674316
1744304525.742,-2.0999999046325684,1.9600000381469727,-3.0799999237060547
1744304525.742,-2.0999999046325684,1.6100000143051147,-2.7300000190734863
1744304525.742,-1.6100000143051147,1.8200000524520874,-3.569999933242798
1744304525.742,-2.0999999046325684,1.8899999856948853,-3.5
1744304525.742,-1.6100000143051147,1.399999976158142,-2.5199999809265137
1744304525.742,-2.1700000762939453,1.190000057220459,-3.2200000286102295
1744304525.742,-1.5399999618530273,0.7699999809265137,-3.2200000286102295
1744304525.816,-1.6800000667572021,0.9800000190734863,-3.640000104904175
1744304525.816,-1.75,0.7699999809265137,-3.009999990463257
1744304525.816,-1.5399999618530273,-0.14000000059604645,-3.430000066757202
1744304525.816,-1.6100000143051147,-1.1200000047683716,-3.2200000286102295
1744304525.816,-1.399999976158142,-1.399999976158142,-2.940000057220459
1744304525.816,-1.3300000429153442,-1.6800000667572021,-2.870000123977661
1744304525.816,-1.1200000047683716,-1.4700000286102295,-2.7300000190734863
1744304525.816,-0.9100000262260437,-1.3300000429153442,-2.5899999141693115
1744304525.89,-0.6299999952316284,-0.5600000023841858,-2.799999952316284
1744304525.89,-0.49000000953674316,0,-2.7300000190734863
1744304525.89,-0.14000000059604645,0.5600000023841858,-2.5199999809265137
1744304525.89,0.07000000029802322,0.5600000023841858,-2.1700000762939453
1744304525.89,0.3499999940395355,0.5600000023841858,-1.9600000381469727
1744304525.89,0.5600000023841858,-0.21000000834465027,-1.4700000286102295
1744304525.89,0.7699999809265137,-1.1200000047683716,-0.8400000333786011
1744304525.89,0.9100000262260437,-1.6100000143051147,-0.9100000262260437
1744304525.964,0.9800000190734863,-1.5399999618530273,-0.6299999952316284
1744304525.964,0.9100000262260437,-1.399999976158142,-0.6299999952316284
1744304525.964,1.190000057220459,-0.9800000190734863,-0.7699999809265137
1744304525.964,0.9800000190734863,-0.42000001668930054,-1.190000057220459
1744304525.964,0.7699999809265137,0,-1.399999976158142
1744304525.964,0.6299999952316284,-0.14000000059604645,-1.6100000143051147
1744304525.964,0.3499999940395355,-0.3499999940395355,-1.6800000667572021
1744304525.964,-0.07000000029802322,-0.8400000333786011,-2.1700000762939453
1744304526.039,-0.21000000834465027,-0.8400000333786011,-2.380000114440918
1744304526.039,-0.42000001668930054,-0.42000001668930054,-2.6600000858306885
1744304526.039,-0.6299999952316284,-0.5600000023841858,-2.870000123977661
1744304526.039,-0.7699999809265137,-1.0499999523162842,-3.0799999237060547
1744304526.039,-0.6299999952316284,-1.3300000429153442,-3.1500000953674316
1744304526.039,-0.699999988079071,-1.190000057220459,-3.2200000286102295
1744304526.039,-0.5600000023841858,-0.6299999952316284,-3.2899999618530273
1744304526.039,-0.3499999940395355,-0.3499999940395355,-3.3600001335144043
1744304526.113,-0.07000000029802322,-0.699999988079071,-3.1500000953674316
1744304526.113,0.14000000059604645,-1.3300000429153442,-2.870000123977661
1744304526.113,0.3499999940395355,-1.8899999856948853,-2.450000047683716
1744304526.113,0.5600000023841858,-1.4700000286102295,-2.0999999046325684
1744304526.113,0.7699999809265137,-1.1200000047683716,-1.8200000524520874
1744304526.113,1.0499999523162842,-0.9100000262260437,-1.3300000429153442
1744304526.113,1.3300000429153442,-1.0499999523162842,-1.190000057220459
1744304526.113,1.399999976158142,-1.4700000286102295,-1.0499999523162842
1744304526.187,1.399999976158142,-1.4700000286102295,-1.0499999523162842
1744304526.187,1.4700000286102295,-1.3300000429153442,-1.1200000047683716
1744304526.187,1.3300000429153442,-1.1200000047683716,-1.399999976158142
1744304526.187,1.4700000286102295,-1.0499999523162842,-1.5399999618530273
1744304526.187,1.3300000429153442,-1.0499999523162842,-1.8200000524520874
1744304526.187,1.2599999904632568,-1.2599999904632568,-1.8200000524520874
1744304526.187,1.0499999523162842,-1.9600000381469727,-1.8899999856948853
1744304526.187,0.8400000333786011,-2.0999999046325684,-1.9600000381469727
1744304526.261,0.9100000262260437,-1.190000057220459,-2.309999942779541
1744304526.261,0.7699999809265137,0.3499999940395355,-2.799999952316284
1744304526.261,0.7699999809265137,1.190000057220459,-3.2200000286102295
1744304526.261,0.7699999809265137,1.1200000047683716,-3.2200000286102295
1744304526.261,0.699999988079071,0.9800000190734863,-3.2899999618530273
1744304526.261,0.5600000023841858,0.699999988079071,-2.940000057220459
1744304526.261,0.49000000953674316,0.21000000834465027,-2.450000047683716
1744304526.261,0.49000000953674316,-0.3499999940395355,-1.9600000381469727
1744304526.335,0.5600000023841858,-1.1200000047683716,-1.4700000286102295
1744304526.335,1.0499999523162842,-1.6800000667572021,-0.9100000262260437
1744304526.335,1.2599999904632568,-1.9600000381469727,-0.42000001668930054
1744304526.335,1.6800000667572021,-1.9600000381469727,0.14000000059604645
1744304526.335,1.8200000524520874,-1.75,0.3499999940395355
1744304526.335,2.0999999046325684,-1.6800000667572021,0.6299999952316284
1744304526.335,2.380000114440918,-2.0299999713897705,0.8400000333786011
1744304526.335,2.870000123977661,-2.0299999713897705,1.0499999523162842
1744304526.409,3.1500000953674316,-1.3300000429153442,1.2599999904632568
1744304526.409,3.430000066757202,-0.9100000262260437,1.4700000286102295
1744304526.409,3.8499999046325684,-0.42000001668930054,1.5399999618530273
1744304526.409,3.2200000286102295,-1.8200000524520874,2.799999952316284
1744304526.409,4.550000190734863,-3.990000009536743,3.1500000953674316
1744304526.409,3.640000104904175,-2.240000009536743,1.2599999904632568
1744304526.409,5.110000133514404,-1.0499999523162842,1.8899999856948853
1744304526.409,5.110000133514404,-0.14000000059604645,1.399999976158142
1744304526.483,5.039999961853027,-1.1200000047683716,1.75
1744304526.483,5.740000247955322,-4.340000152587891,2.450000047683716
1744304526.483,6.090000152587891,-4.409999847412109,1.8200000524520874
1744304526.483,4.829999923706055,-3.640000104904175,2.1700000762939453
1744304526.483,6.019999980926514,-3.9200000762939453,3.7100000381469727
1744304526.483,7.769999980926514,0.42000001668930054,-2.0999999046325684
1744304526.483,7.420000076293945,6.720000267028809,-5.389999866485596
1744304526.483,6.860000133514404,6.510000228881836,-1.6100000143051147
1744304526.557,5.25,-2.799999952316284,-0.14000000059604645
1744304526.557,3.9200000762939453,-13.369999885559082,1.190000057220459
1744304526.557,5.670000076293945,-15.329999923706055,2.1700000762939453
1744304526.557,4.340000152587891,-3.7100000381469727,-0.07000000029802322
1744304526.557,4.480000019073486,6.789999961853027,-1.8200000524520874
1744304526.557,4.760000228881836,8.819999694824219,-4.269999980926514
1744304526.557,3.7100000381469727,6.230000019073486,-2.940000057220459
1744304526.557,4.269999980926514,2.870000123977661,-2.940000057220459
1744304526.631,3.7100000381469727,0.2800000011920929,-3.2200000286102295
1744304526.631,3.9200000762939453,-2.0999999046325684,-1.4700000286102295
1744304526.631,3.7799999713897705,-3.2200000286102295,0.14000000059604645
1744304526.631,4.619999885559082,-2.870000123977661,0.9100000262260437
1744304526.631,5.039999961853027,-1.6800000667572021,-0.2800000011920929
1744304526.631,5.110000133514404,1.0499999523162842,-0.42000001668930054
1744304526.631,4.550000190734863,4.96999979019165,-1.6800000667572021
1744304526.631,3.2899999618530273,5.740000247955322,-2.380000114440918
1744304526.705,2.240000009536743,3.009999990463257,-2.240000009536743
1744304526.705,1.0499999523162842,-0.3499999940395355,-1.8899999856948853
1744304526.705,0.42000001668930054,-1.4700000286102295,-2.0299999713897705
1744304526.705,0.21000000834465027,-0.6299999952316284,-2.6600000858306885
1744304526.705,0.5600000023841858,1.190000057220459,-2.870000123977661
1744304526.705,0.6299999952316284,2.5199999809265137,-3.7799999713897705
1744304526.705,0.5600000023841858,2.7300000190734863,-3.7799999713897705
1744304526.705,0.49000000953674316,0.5600000023841858,-3.0799999237060547
1744304526.779,0.7699999809265137,-1.75,-2.5199999809265137
1744304526.779,0.9100000262260437,-1.75,-2.6600000858306885
1744304526.779,1.1200000047683716,-0.21000000834465027,-2.7300000190734863
1744304526.779,1.1200000047683716,0.14000000059604645,-2.309999942779541
1744304526.779,1.4700000286102295,-1.4700000286102295,-1.8200000524520874
1744304526.779,1.75,-3.0799999237060547,-1.399999976158142
1744304526.779,1.8200000524520874,-2.380000114440918,-1.190000057220459
1744304526.779,1.9600000381469727,-1.0499999523162842,-1.1200000047683716
1744304526.853,2.240000009536743,-0.699999988079071,-0.9100000262260437
1744304526.853,2.380000114440918,-1.4700000286102295,-0.699999988079071
1744304526.853,2.309999942779541,-2.309999942779541,-0.49000000953674316
1744304526.853,2.1700000762939453,-2.5899999141693115,-0.42000001668930054
1744304526.853,1.8899999856948853,-2.799999952316284,-0.2800000011920929
1744304526.853,1.6800000667572021,-3.7100000381469727,-0.07000000029802322
1744304526.853,1.3300000429153442,-4.269999980926514,0.14000000059604645
1744304526.853,1.4700000286102295,-3.569999933242798,0.21000000834465027
1744304526.927,1.4700000286102295,-2.0299999713897705,0.21000000834465027
1744304526.927,1.4700000286102295,-1.2599999904632568,0.42000001668930054
1744304526.927,1.5399999618530273,-2.0299999713897705,1.1200000047683716
1744304526.927,1.5399999618530273,-3.3600001335144043,1.75
1744304526.927,1.1200000047683716,-3.7799999713897705,2.240000009536743
1744304526.927,0.8400000333786011,-3.0799999237060547,2.240000009536743
1744304526.927,0.5600000023841858,-1.9600000381469727,2.240000009536743
1744304526.927,0.2800000011920929,-1.0499999523162842,1.8200000524520874
1744304527.001,0.2800000011920929,-1.0499999523162842,1.6100000143051147
1744304527.001,0,-0.49000000953674316,1.2599999904632568
1744304527.001,-0.14000000059604645,0.8400000333786011,0.7699999809265137
1744304527.001,-0.3499999940395355,1.190000057220459,0.5600000023841858
1744304527.001,-0.3499999940395355,0.42000001668930054,0.6299999952316284
1744304527.001,-0.2800000011920929,-0.6299999952316284,0.699999988079071
1744304527.001,-0.14000000059604645,-0.49000000953674316,0.5600000023841858
1744304527.001,0.14000000059604645,0.9800000190734863,0.21000000834465027
1744304527.075,0.3499999940395355,2.240000009536743,0.14000000059604645
1744304527.075,0.5600000023841858,1.75,0.2800000011920929
1744304527.075,0.7699999809265137,0.7699999809265137,0.6299999952316284
1744304527.075,0.9100000262260437,-0.07000000029802322,1.1200000047683716
1744304527.075,0.9800000190734863,-0.8400000333786011,1.5399999618530273
1744304527.075,1.0499999523162842,-1.4700000286102295,1.75
1744304527.075,0.9100000262260437,-2.1700000762939453,2.1700000762939453
1744304527.075,0.699999988079071,-3.2200000286102295,2.5899999141693115
1744304527.149,0.699999988079071,-3.640000104904175,2.799999952316284
1744304527.149,0.6299999952316284,-3.2899999618530273,2.5899999141693115
1744304527.149,0.5600000023841858,-2.450000047683716,2.240000009536743
1744304527.149,0.42000001668930054,-1.75,1.8899999856948853
1744304527.149,0.14000000059604645,-2.240000009536743,1.6800000667572021
1744304527.149,-0.2800000011920929,-3.009999990463257,1.3300000429153442
1744304527.149,-0.699999988079071,-3.009999990463257,0.699999988079071
1744304527.149,-1.2599999904632568,-2.1700000762939453,-0.21000000834465027
1744304527.223,-1.75,-0.7699999809265137,-1.3300000429153442
1744304527.223,-2.240000009536743,0.3499999940395355,-2.380000114440918
1744304527.223,-2.5899999141693115,1.3300000429153442,-3.3600001335144043
1744304527.223,-2.799999952316284,2.1700000762939453,-3.9200000762939453
1744304527.223,-3.1500000953674316,2.450000047683716,-4.340000152587891
1744304527.223,-3.3600001335144043,2.799999952316284,-4.480000019073486
1744304527.223,-3.5,3.0799999237060547,-4.619999885559082
1744304527.223,-3.3600001335144043,3.3600001335144043,-4.340000152587891
1744304527.297,-3.1500000953674316,3.7799999713897705,-3.990000009536743
1744304527.297,-2.799999952316284,4.199999809265137,-3.640000104904175
1744304527.297,-2.5899999141693115,4.619999885559082,-3.2200000286102295
1744304527.297,-2.309999942779541,5.039999961853027,-2.940000057220459
1744304527.297,-2.0999999046325684,5.389999866485596,-2.7300000190734863
1744304527.297,-1.8200000524520874,5.460000038146973,-2.309999942779541
1744304527.297,-1.8200000524520874,5.110000133514404,-1.75
1744304527.297,-1.9600000381469727,4.619999885559082,-1.3300000429153442
1744304527.372,-1.8899999856948853,4.269999980926514,-0.9100000262260437
1744304527.372,-1.399999976158142,3.640000104904175,-0.3499999940395355
1744304527.372,-1.3300000429153442,2.799999952316284,-0.6299999952316284
1744304527.372,-1.5399999618530273,1.8200000524520874,0.6299999952316284
1744304527.372,-1.75,-0.699999988079071,1.6800000667572021
1744304527.372,3.9200000762939453,-0.9800000190734863,0.6299999952316284
1744304527.372,4.199999809265137,3.990000009536743,-4.619999885559082
1744304527.372,-0.3499999940395355,3.009999990463257,0.3499999940395355
1744304527.446,1.9600000381469727,-10.569999694824219,6.369999885559082
1744304527.446,3.430000066757202,-20.649999618530273,4.480000019073486
1744304527.446,1.8200000524520874,-13.510000228881836,1.6800000667572021
1744304527.446,1.399999976158142,1.0499999523162842,-0.14000000059604645
1744304527.446,-0.21000000834465027,10.149999618530273,-3.009999990463257
1744304527.446,-0.5600000023841858,5.039999961853027,-4.760000228881836
1744304527.446,-1.9600000381469727,-4.480000019073486,-5.949999809265137
1744304527.446,-3.1500000953674316,-9.59000015258789,-2.870000123977661
1744304527.52,-3.8499999046325684,-14.069999694824219,-1.8200000524520874
1744304527.52,-3.0799999237060547,-17.149999618530273,-0.14000000059604645
1744304527.52,-1.4700000286102295,-12.109999656677246,-2.5199999809265137
1744304527.52,-0.9800000190734863,-3.430000066757202,-3.2899999618530273
1744304527.52,-0.07000000029802322,0.5600000023841858,-3.0799999237060547
1744304527.52,0.699999988079071,-1.0499999523162842,-3.640000104904175
1744304527.52,1.399999976158142,-1.9600000381469727,-4.480000019073486
1744304527.52,1.1200000047683716,-1.399999976158142,-3.7100000381469727
1744304527.594,0.3499999940395355,-3.0799999237060547,-2.0999999046325684
1744304527.594,0,-7.139999866485596,-1.8200000524520874
1744304527.594,0.21000000834465027,-8.539999961853027,-1.6100000143051147
1744304527.594,0.07000000029802322,-5.110000133514404,-1.9600000381469727
1744304527.594,-0.07000000029802322,-2.0299999713897705,-2.240000009536743
1744304527.594,-0.21000000834465027,-1.4700000286102295,-2.5199999809265137
1744304527.594,-0.07000000029802322,-2.380000114440918,-2.6600000858306885
1744304527.594,-0.07000000029802322,-2.380000114440918,-2.799999952316284
1744304527.668,0.14000000059604645,-2.5899999141693115,-2.5199999809265137
1744304527.668,0.21000000834465027,-3.569999933242798,-2.0299999713897705
1744304527.668,0.2800000011920929,-5.320000171661377,-1.399999976158142
1744304527.668,0.21000000834465027,-6.300000190734863,-1.2599999904632568
1744304527.668,0.49000000953674316,-6.090000152587891,-1.1200000047683716
1744304527.668,0.49000000953674316,-5.25,-1.4700000286102295
1744304527.668,0.14000000059604645,-4.130000114440918,-1.75
1744304527.668,-0.21000000834465027,-3.8499999046325684,-1.8200000524520874
1744304527.742,-0.5600000023841858,-4.130000114440918,-1.75
1744304527.742,-0.8400000333786011,-3.9200000762939453,-2.0299999713897705
1744304527.742,-0.9100000262260437,-3.8499999046325684,-2.1700000762939453
1744304527.742,-1.0499999523162842,-3.569999933242798,-2.309999942779541
1744304527.742,-0.8400000333786011,-3.7799999713897705,-2.5899999141693115
1744304527.742,-0.699999988079071,-4.619999885559082,-2.6600000858306885
1744304527.742,-0.49000000953674316,-4.619999885559082,-2.870000123977661
1744304527.742,-0.14000000059604645,-3.640000104904175,-3.2200000286102295
1744304527.816,0,-2.7300000190734863,-3.569999933242798
1744304527.816,-0.21000000834465027,-2.240000009536743,-3.5
1744304527.816,-0.07000000029802322,-2.7300000190734863,-3.0799999237060547
1744304527.816,0.07000000029802322,-3.569999933242798,-2.5899999141693115
1744304527.816,-0.07000000029802322,-4.269999980926514,-2.6600000858306885
1744304527.816,-0.14000000059604645,-4.059999942779541,-2.309999942779541
1744304527.816,-0.14000000059604645,-3.640000104904175,-2.5899999141693115
1744304527.816,-0.14000000059604645,-3.2899999618530273,-2.870000123977661
1744304527.89,-0.14000000059604645,-3.7100000381469727,-2.5899999141693115
1744304527.89,-0.21000000834465027,-4.480000019073486,-2.450000047683716
1744304527.89,-0.3499999940395355,-4.619999885559082,-2.5199999809265137
1744304527.89,-0.21000000834465027,-3.990000009536743,-3.009999990463257
1744304527.89,-0.42000001668930054,-2.6600000858306885,-3.5
1744304527.89,-0.699999988079071,-1.4700000286102295,-3.990000009536743
1744304527.89,-1.1200000047683716,-1.6100000143051147,-4.619999885559082
1744304527.89,-1.6100000143051147,-2.380000114440918,-5.179999828338623
1744304527.964,-1.8899999856948853,-2.870000123977661,-5.670000076293945
1744304527.964,-2.450000047683716,-3.0799999237060547,-6.090000152587891
1744304527.964,-2.799999952316284,-2.5899999141693115,-6.720000267028809
1744304527.964,-2.940000057220459,-2.5199999809265137,-6.860000133514404
1744304527.964,-3.009999990463257,-2.7300000190734863,-6.860000133514404
1744304527.964,-3.2899999618530273,-3.8499999046325684,-6.369999885559082
1744304527.964,-3.640000104904175,-5.389999866485596,-5.460000038146973
1744304527.964,-3.640000104904175,-7.349999904632568,-4.340000152587891
1744304528.038,-3.430000066757202,-8.260000228881836,-3.569999933242798
1744304528.038,-3.0799999237060547,-8.050000190734863,-2.940000057220459
1744304528.038,-2.940000057220459,-6.860000133514404,-2.1700000762939453
1744304528.038,-3.2899999618530273,-6.159999847412109,-1.75
1744304528.038,-3.1500000953674316,-6.159999847412109,-1.2599999904632568
1744304528.038,-2.870000123977661,-6.650000095367432,-0.3499999940395355
1744304528.038,-2.6600000858306885,-7.210000038146973,0.3499999940395355
1744304528.038,-2.1700000762939453,-7.420000076293945,0.8400000333786011
1744304528.112,-1.5399999618530273,-6.300000190734863,1.0499999523162842
1744304528.112,-1.6100000143051147,-5.949999809265137,1.190000057220459
1744304528.112,-1.3300000429153442,-5.460000038146973,1.190000057220459
1744304528.112,-0.7699999809265137,-5.53000020980835,1.3300000429153442
1744304528.112,-0.49000000953674316,-5.25,1.399999976158142
1744304528.112,-0.49000000953674316,-3.990000009536743,1.1200000047683716
1744304528.112,-0.3499999940395355,-2.5899999141693115,0.6299999952316284
1744304528.112,0,-1.3300000429153442,0.49000000953674316
1744304528.186,0.21000000834465027,-0.3499999940395355,0.42000001668930054
1744304528.186,0.3499999940395355,0.699999988079071,0.49000000953674316
1744304528.186,0.5600000023841858,1.190000057220459,0.8400000333786011
1744304528.186,0.6299999952316284,0.14000000059604645,1.5399999618530273
1744304528.186,0.7699999809265137,-1.8200000524520874,2.380000114440918
1744304528.186,0.9800000190734863,-3.0799999237060547,2.7300000190734863
1744304528.186,0.9800000190734863,-1.8200000524520874,2.5899999141693115
1744304528.186,1.0499999523162842,0,2.5899999141693115
1744304528.26,1.3300000429153442,-0.3499999940395355,2.870000123977661
1744304528.26,1.4700000286102295,-2.5899999141693115,3.430000066757202
1744304528.26,1.5399999618530273,-5.320000171661377,4.059999942779541
1744304528.26,1.6100000143051147,-6.510000228881836,4.409999847412109
1744304528.26,1.3300000429153442,-6.300000190734863,4.480000019073486
1744304528.26,0.9800000190734863,-6.019999980926514,4.550000190734863
1744304528.26,0.2800000011920929,-5.110000133514404,4.409999847412109
1744304528.26,-0.5600000023841858,-4.690000057220459,4.199999809265137
1744304528.334,-1.4700000286102295,-5.179999828338623,4.199999809265137
1744304528.334,-2.240000009536743,-7.420000076293945,4.269999980926514
1744304528.334,-3.1500000953674316,-9.3100004196167,4.340000152587891
1744304528.334,-3.9200000762939453,-9.520000457763672,3.7799999713897705
1744304528.334,-4.619999885559082,-7.980000019073486,2.7300000190734863
1744304528.334,-5.039999961853027,-6.159999847412109,1.6100000143051147
1744304528.334,-5.740000247955322,-5.53000020980835,0.8400000333786011
1744304528.334,-6.650000095367432,-6.230000019073486,0.2800000011920929
1744304528.408,-7.420000076293945,-7,0
1744304528.408,-8.329999923706055,-7.420000076293945,-0.07000000029802322
1744304528.408,-8.960000038146973,-7.980000019073486,-0.3499999940395355
1744304528.408,-9.449999809265137,-8.260000228881836,-0.9100000262260437
1744304528.408,-9.730000495910645,-9.239999771118164,-1.2599999904632568
1744304528.408,-10.289999961853027,-9.800000190734863,-1.399999976158142
1744304528.408,-10.850000381469727,-10.220000267028809,-1.75
1744304528.408,-11.40999984741211,-9.100000381469727,-2.5199999809265137
1744304528.482,-12.319999694824219,-6.440000057220459,-3.7799999713897705
1744304528.482,-13.09000015258789,-4.690000057220459,-4.829999923706055
1744304528.482,-13.859999656677246,-5.320000171661377,-5.320000171661377
1744304528.482,-14.90999984741211,-6.929999828338623,-5.880000114440918
1744304528.482,-15.470000267028809,-8.119999885559082,-6.650000095367432
1744304528.482,-16.030000686645508,-7,-7.769999980926514
1744304528.482,-16.520000457763672,-5.460000038146973,-8.890000343322754
1744304528.482,-16.799999237060547,-4.96999979019165,-9.59000015258789
1744304528.556,-17.219999313354492,-4.690000057220459,-10.289999961853027
1744304528.556,-17.5,-4.690000057220459,-10.710000038146973
1744304528.556,-17.920000076293945,-4.199999809265137,-11.0600004196167
1744304528.556,-18.34000015258789,-4.340000152587891,-11.34000015258789
1744304528.556,-18.899999618530273,-5.110000133514404,-11.0600004196167
1744304528.556,-18.969999313354492,-7.769999980926514,-10.710000038146973
1744304528.556,-19.25,-10.5,-10.289999961853027
1744304528.556,-19.31999969482422,-11.899999618530273,-10.359999656677246
1744304528.63,-18.969999313354492,-12.390000343322754,-10.430000305175781
1744304528.63,-18.690000534057617,-12.319999694824219,-10.569999694824219
1744304528.63,-18.40999984741211,-12.529999732971191,-10.779999732971191
1744304528.63,-18.270000457763672,-12.739999771118164,-10.989999771118164
1744304528.63,-17.71000099182129,-12.529999732971191,-11.0600004196167
1744304528.63,-17.71000099182129,-11.899999618530273,-11.40999984741211
1744304528.63,-17.360000610351562,-10.710000038146973,-11.6899995803833
1744304528.63,-17.290000915527344,-9.59000015258789,-11.899999618530273
1744304528.704,-17.360000610351562,-9.170000076293945,-11.899999618530273
1744304528.704,-17.5,-8.75,-11.970000267028809
1744304528.704,-17.43000030517578,-7.28000020980835,-12.319999694824219
1744304528.704,-16.8700008392334,-5.949999809265137,-12.460000038146973
1744304528.704,-16.8700008392334,-4.690000057220459,-12.670000076293945
1744304528.704,-17.079999923706055,-4.619999885559082,-12.949999809265137
1744304528.704,-16.940000534057617,-5.389999866485596,-12.949999809265137
1744304528.704,-16.8700008392334,-5.880000114440918,-12.949999809265137
1744304528.778,-16.59000015258789,-5.53000020980835,-13.230000495910645
1744304528.778,-16.3799991607666,-4.900000095367432,-13.789999961853027
1744304528.778,-16.030000686645508,-4.480000019073486,-14.210000038146973
1744304528.778,-15.050000190734863,-4.340000152587891,-14.069999694824219
1744304528.778,-14.279999732971191,-6.369999885559082,-14.5600004196167
1744304528.778,-15.75,-5.110000133514404,-14.069999694824219
1744304528.778,-15.050000190734863,-6.369999885559082,-13.859999656677246
1744304528.778,-15.329999923706055,-6.650000095367432,-14.140000343322754
1744304528.852,-15.190000534057617,-6.159999847412109,-14.140000343322754
1744304528.852,-15.329999923706055,-5.809999942779541,-14.420000076293945
1744304528.852,-15.960000038146973,-5.949999809265137,-14.770000457763672
1744304528.852,-16.450000762939453,-6.230000019073486,-15.050000190734863
1744304528.852,-16.59000015258789,-7.909999847412109,-15.190000534057617
1744304528.852,-16.239999771118164,-9.59000015258789,-16.100000381469727
1744304528.852,-16.030000686645508,-11.34000015258789,-17.149999618530273
1744304528.852,-15.960000038146973,-11.619999885559082,-17.920000076293945
1744304528.926,-16.309999465942383,-12.180000305175781,-19.25
1744304528.926,-16.729999542236328,-12.600000381469727,-20.3700008392334
1744304528.926,-17.149999618530273,-14.420000076293945,-21.350000381469727
1744304528.926,-17.219999313354492,-16.239999771118164,-22.610000610351562
1744304528.926,-17.71000099182129,-18.760000228881836,-23.729999542236328
1744304528.926,-17.71000099182129,-20.229999542236328,-25.1299991607666
1744304528.926,-18.270000457763672,-22.469999313354492,-26.31999969482422
1744304528.926,-18.969999313354492,-24.360000610351562,-27.510000228881836
1744304529.001,-19.25,-25.760000228881836,-29.329999923706055
1744304529.001,-19.8799991607666,-28.559999465942383,-30.59000015258789
1744304529.001,-20.510000228881836,-30.940000534057617,-31.989999771118164
1744304529.001,-21.21000099182129,-33.38999938964844,-33.38999938964844
1744304529.001,-21.979999542236328,-35.560001373291016,-35.06999969482422
1744304529.001,-22.889999389648438,-37.72999954223633,-36.540000915527344
1744304529.001,-23.65999984741211,-39.20000076293945,-38.290000915527344
1744304529.001,-24.5,-40.18000030517578,-40.040000915527344
1744304529.075,-24.920000076293945,-41.15999984741211,-41.720001220703125
1744304529.075,-24.780000686645508,-41.09000015258789,-42.90999984741211
1744304529.075,-24.56999969482422,-38.0099983215332,-43.61000061035156
1744304529.075,-22.190000534057617,-29.1200008392334,-42.4900016784668
1744304529.075,-24.010000228881836,-28.280000686645508,-41.22999954223633
1744304529.075,-22.610000610351562,-1.5399999618530273,-48.720001220703125
1744304529.075,-24.989999771118164,19.739999771118164,-44.45000076293945
1744304529.075,-25.40999984741211,27.020000457763672,-46.970001220703125
1744304529.149,-22.399999618530273,36.61000061035156,-47.67000198364258
1744304529.149,-18.6200008392334,46.619998931884766,-45.92000198364258
1744304529.149,-15.260000228881836,49.630001068115234,-42.42000198364258
1744304529.149,-12.8100004196167,45.150001525878906,-36.2599983215332
1744304529.149,-9.3100004196167,38.56999969482422,-28.489999771118164
1744304529.149,-3.640000104904175,20.510000228881836,-14.699999809265137
1744304529.149,-8.539999961853027,-10.010000228881836,0.8400000333786011
1744304529.149,-10.569999694824219,-34.09000015258789,14.90999984741211
1744304529.223,-6.579999923706055,-66.29000091552734,40.810001373291016
1744304529.223,-12.949999809265137,-101.01000213623047,57.33000183105469
1744304529.223,-15.399999618530273,-118.58000183105469,68.25
1744304529.223,-11.899999618530273,-114.94000244140625,76.58000183105469
1744304529.223,-9.029999732971191,-104.79000091552734,86.23999786376953
1744304529.223,-6.159999847412109,-93.30999755859375,93.23999786376953
1744304529.223,-0.42000001668930054,-83.30000305175781,100.0999984741211
1744304529.223,7,-72.66000366210938,107.02999877929688
1744304529.297,8.680000305175781,-75.11000061035156,113.05000305175781
1744304529.297,15.680000305175781,-62.09000015258789,116.34000396728516
1744304529.297,24.639999389648438,-37.869998931884766,115.77999877929688
1744304529.297,30.65999984741211,-10.569999694824219,114.0999984741211
1744304529.297,34.58000183105469,7.769999980926514,112.9800033569336
1744304529.297,37.17000198364258,17.010000228881836,110.38999938964844
1744304529.297,39.27000045776367,28.630001068115234,103.45999908447266
1744304529.297,41.58000183105469,44.939998626708984,94.08000183105469
1744304529.371,43.2599983215332,59.56999969482422,84.7699966430664
1744304529.371,45.0099983215332,69.6500015258789,74.69000244140625
1744304529.371,47.18000030517578,77.06999969482422,63.70000076293945
1744304529.371,49.560001373291016,81.4800033569336,53.27000045776367
1744304529.371,51.380001068115234,82.04000091552734,43.81999969482422
1744304529.371,52.56999969482422,77.3499984741211,35.06999969482422
1744304529.371,60.40999984741211,67.83000183105469,25.829999923706055
1744304529.371,70.9800033569336,45.290000915527344,12.460000038146973
1744304529.445,61.7400016784668,1.75,-0.21000000834465027
1744304529.445,31.149999618530273,-48.5099983215332,-3.990000009536743
1744304529.445,10.149999618530273,-104.44000244140625,8.680000305175781
1744304529.445,0.9800000190734863,-140.2100067138672,14.90999984741211
1744304529.445,0,-124.11000061035156,7.210000038146973
1744304529.445,5.740000247955322,-69.93000030517578,-1.190000057220459
1744304529.445,11.760000228881836,-11.270000457763672,-5.25
1744304529.445,16.729999542236328,37.65999984741211,-9.730000495910645
1744304529.519,19.809999465942383,68.5999984741211,-18.34000015258789
1744304529.519,18.690000534057617,86.94000244140625,-28.84000015258789
1744304529.519,16.100000381469727,86.80000305175781,-33.599998474121094
1744304529.519,14.350000381469727,63.06999969482422,-29.610000610351562
1744304529.519,14.84000015258789,32.900001525878906,-23.170000076293945
1744304529.519,13.930000305175781,-0.9100000262260437,-16.450000762939453
1744304529.519,13.09000015258789,-22.1200008392334,-12.880000114440918
1744304529.519,11.40999984741211,-30.030000686645508,-12.319999694824219
1744304529.593,10.920000076293945,-26.670000076293945,-12.109999656677246
1744304529.593,12.109999656677246,-17.010000228881836,-11.199999809265137
1744304529.593,13.859999656677246,-2.5199999809265137,-11.199999809265137
1744304529.593,14.5600004196167,13.15999984741211,-13.859999656677246
1744304529.593,15.119999885559082,25.059999465942383,-15.680000305175781
1744304529.593,16.309999465942383,28.21000099182129,-15.329999923706055
1744304529.593,17.71000099182129,26.25,-14.350000381469727
1744304529.593,18.6200008392334,19.389999389648438,-12.460000038146973
1744304529.667,18.760000228881836,13.15999984741211,-10.569999694824219
1744304529.667,18.059999465942383,6.369999885559082,-9.730000495910645
1744304529.667,17.5,-1.4700000286102295,-8.470000267028809
1744304529.667,17.360000610351562,-6.159999847412109,-7.769999980926514
1744304529.667,17.290000915527344,-6.510000228881836,-7.980000019073486
1744304529.667,16.8700008392334,-3.009999990463257,-8.890000343322754
1744304529.667,17.079999923706055,1.6800000667572021,-10.149999618530273
1744304529.667,17.149999618530273,5.809999942779541,-11.760000228881836
1744304529.741,17.290000915527344,8.1899995803833,-13.09000015258789
1744304529.741,17.360000610351562,8.470000267028809,-13.369999885559082
1744304529.741,17.149999618530273,6.929999828338623,-12.880000114440918
1744304529.741,16.65999984741211,4.130000114440918,-12.460000038146973
1744304529.741,16.65999984741211,1.8200000524520874,-11.480000495910645
1744304529.741,16.799999237060547,1.75,-10.710000038146973
1744304529.741,16.729999542236328,3.640000104904175,-10.710000038146973
1744304529.741,17.010000228881836,5.599999904632568,-10.920000076293945
1744304529.815,17.920000076293945,7.840000152587891,-10.920000076293945
1744304529.815,18.6200008392334,9.800000190734863,-11.6899995803833
1744304529.815,18.899999618530273,11.0600004196167,-12.319999694824219
1744304529.815,18.40999984741211,9.869999885559082,-12.670000076293945
1744304529.815,18.200000762939453,7.840000152587891,-12.460000038146973
1744304529.815,17.5,6.440000057220459,-12.180000305175781
1744304529.815,16.3799991607666,5.599999904632568,-12.25
1744304529.815,15.399999618530273,4.059999942779541,-12.25
1744304529.889,14,2.380000114440918,-11.899999618530273
1744304529.889,12.670000076293945,2.799999952316284,-12.039999961853027
1744304529.889,11.270000457763672,5.53000020980835,-12.8100004196167
1744304529.889,9.59000015258789,7.490000247955322,-13.579999923706055
1744304529.889,7.559999942779541,5.179999828338623,-14.210000038146973
1744304529.889,5.949999809265137,1.6100000143051147,-13.649999618530273
1744304529.889,3.640000104904175,-1.8899999856948853,-14.210000038146973
1744304529.889,2.870000123977661,-5.670000076293945,-14.630000114440918
1744304529.963,1.8899999856948853,-8.609999656677246,-14.84000015258789
1744304529.963,0.49000000953674316,-10.149999618530273,-15.539999961853027
1744304529.963,0,-10.640000343322754,-16.170000076293945
1744304529.963,-1.3300000429153442,-11.829999923706055,-17.079999923706055
1744304529.963,-2.5899999141693115,-13.09000015258789,-18.1299991607666
1744304529.963,-2.940000057220459,-12.25,-19.389999389648438
1744304529.963,-3.2200000286102295,-9.380000114440918,-21.139999389648438
1744304529.963,-3.3600001335144043,-7.699999809265137,-22.469999313354492
1744304530.037,-3.7100000381469727,-8.890000343322754,-22.75
1744304530.037,-4.760000228881836,-11.40999984741211,-22.96000099182129
1744304530.037,-5.25,-13.15999984741211,-23.8700008392334
1744304530.037,-6.230000019073486,-13.579999923706055,-24.920000076293945
1744304530.037,-6.789999961853027,-11.899999618530273,-26.530000686645508
1744304530.037,-6.860000133514404,-9.730000495910645,-28.979999542236328
1744304530.037,-7.630000114440918,-8.470000267028809,-30.940000534057617
1744304530.037,-8.260000228881836,-9.239999771118164,-32.54999923706055
1744304530.111,-9.100000381469727,-10.989999771118164,-33.810001373291016
1744304530.111,-10.220000267028809,-12.880000114440918,-35.349998474121094
1744304530.111,-10.569999694824219,-14.630000114440918,-36.75
1744304530.111,-11.619999885559082,-15.119999885559082,-39.20000076293945
1744304530.111,-13.020000457763672,-15.960000038146973,-41.09000015258789
1744304530.111,-13.859999656677246,-16.729999542236328,-43.400001525878906
1744304530.111,-14.140000343322754,-18.1299991607666,-45.63999938964844
1744304530.111,-14.630000114440918,-20.020000457763672,-47.599998474121094
1744304530.185,-15.399999618530273,-23.799999237060547,-49
1744304530.185,-15.890000343322754,-29.260000228881836,-50.2599983215332
1744304530.185,-16.170000076293945,-35,-51.65999984741211
1744304530.185,-16.520000457763672,-40.810001373291016,-53.689998626708984
1744304530.185,-17.850000381469727,-45.08000183105469,-56.560001373291016
1744304530.185,-18.1299991607666,-49.13999938964844,-59.779998779296875
1744304530.185,-16.59000015258789,-52.779998779296875,-63.42000198364258
1744304530.185,-10.850000381469727,-64.81999969482422,-62.650001525878906
1744304530.259,-19.040000915527344,-82.31999969482422,-70.13999938964844
1744304530.259,-16.8700008392334,-86.7300033569336,-72.44999694824219
1744304530.259,-18.1299991607666,-98,-78.05000305175781
1744304530.259,-18.270000457763672,-100.0999984741211,-82.38999938964844
1744304530.259,-18.760000228881836,-94.8499984741211,-89.18000030517578
1744304530.259,-19.31999969482422,-89.18000030517578,-93.30999755859375
1744304530.259,-19.600000381469727,-87.36000061035156,-95.62000274658203
1744304530.259,-20.299999237060547,-87.5,-95.9000015258789
1744304530.334,-21.700000762939453,-83.93000030517578,-95.69000244140625
1744304530.334,-24.219999313354492,-79.23999786376953,-95.55000305175781
1744304530.334,-26.739999771118164,-70.91000366210938,-95.55000305175781
1744304530.334,-29.75,-60.27000045776367,-97.37000274658203
1744304530.334,-31.639999389648438,-48.720001220703125,-99.4000015258789
1744304530.334,-33.810001373291016,-38.849998474121094,-102.34000396728516
1744304530.334,-38.43000030517578,-35.4900016784668,-106.19000244140625
1744304530.334,-40.529998779296875,-34.09000015258789,-106.75
1744304530.408,-40.7400016784668,-31.56999969482422,-108.36000061035156
1744304530.408,-42.4900016784668,-31.43000030517578,-111.51000213623047
1744304530.408,-45.08000183105469,-33.67000198364258,-113.05000305175781
1744304530.408,-45.9900016784668,-36.68000030517578,-114.30999755859375
1744304530.408,-45.849998474121094,-40.040000915527344,-117.11000061035156
1744304530.408,-45.92000198364258,-45.220001220703125,-118.02000427246094
1744304530.408,-45.290000915527344,-51.52000045776367,-118.30000305175781
1744304530.408,-42.90999984741211,-57.26000213623047,-120.4000015258789
1744304530.482,-40.18000030517578,-65.44999694824219,-121.87000274658203
1744304530.482,-37.45000076293945,-73.77999877929688,-124.73999786376953
1744304530.482,-34.5099983215332,-82.11000061035156,-127.4000015258789
1744304530.482,-33.38999938964844,-92.12000274658203,-130.47999572753906
1744304530.482,-34.09000015258789,-101.98999786376953,-134.25999450683594
1744304530.482,-34.369998931884766,-108.70999908447266,-141.25999450683594
1744304530.482,-33.25,-109.27000427246094,-148.47000122070312
1744304530.482,-28.700000762939453,-104.51000213623047,-150.4300079345703
1744304530.556,-25.760000228881836,-103.11000061035156,-143.7100067138672
1744304530.556,-19.809999465942383,-114.23999786376953,-132.50999450683594
1744304530.556,-8.050000190734863,-132.5800018310547,-114.66000366210938
1744304530.556,7.909999847412109,-155.47000122070312,-93.44999694824219
1744304530.556,22.75,-180.11000061035156,-73.08000183105469
1744304530.556,38.150001525878906,-208.0399932861328,-54.31999969482422
1744304530.556,42.90999984741211,-234.57000732421875,-35.560001373291016
1744304530.556,40.880001068115234,-259.489990234375,-15.329999923706055
1744304530.63,31.989999771118164,-275.1000061035156,1.4700000286102295
1744304530.63,32.7599983215332,-270.760009765625,32.900001525878906
1744304530.63,28.280000686645508,-262.0799865722656,58.869998931884766
1744304530.63,28.90999984741211,-206.9199981689453,76.30000305175781
1744304530.63,43.81999969482422,-121.7300033569336,82.94999694824219
1744304530.63,56.97999954223633,-35.42000198364258,88.62000274658203
1744304530.63,64.33000183105469,38.0099983215332,94.1500015258789
1744304530.63,68.94999694824219,101.43000030517578,97.37000274658203
1744304530.704,69.86000061035156,147.83999633789062,102.4800033569336
1744304530.704,67.19999694824219,183.82000732421875,108.08000183105469
1744304530.704,64.81999969482422,214.27000427246094,116.41000366210938
1744304530.704,64.88999938964844,232.19000244140625,129.63999938964844
1744304530.704,64.75,228.33999633789062,143.9199981689453
1744304530.704,63.279998779296875,206.57000732421875,157.5
1744304530.704,62.790000915527344,172.41000366210938,172.75999450683594
1744304530.704,60.900001525878906,125.09000396728516,188.08999633789062
1744304530.778,57.540000915527344,73.5,200.1999969482422
1744304530.778,56.06999969482422,27.229999542236328,210.2100067138672
1744304530.778,57.61000061035156,-7.630000114440918,219.52000427246094
1744304530.778,62.650001525878906,-26.950000762939453,226.66000366210938
1744304530.778,70.20999908447266,-31.149999618530273,230.72000122070312
1744304530.778,80.56999969482422,-25.6200008392334,234.29000854492188
1744304530.778,92.61000061035156,-12.739999771118164,237.64999389648438
1744304530.778,105.48999786376953,2.5199999809265137,239.47000122070312
1744304530.852,118.58000183105469,16.59000015258789,239.25999450683594
1744304530.852,128.58999633789062,19.809999465942383,239.61000061035156
1744304530.852,132.50999450683594,11.6899995803833,242.47999572753906
1744304530.852,133.2100067138672,0.6299999952316284,246.54000854492188
1744304530.852,133.4199981689453,-1.5399999618530273,245.07000732421875
1744304530.852,134.6800079345703,8.329999923706055,237.08999633789062
1744304530.852,134.75,27.229999542236328,227.14999389648438
1744304530.852,133.4199981689453,48.650001525878906,220.77999877929688
1744304530.926,131.32000732421875,64.68000030517578,217.55999755859375
1744304530.926,130.05999755859375,71.75,214.5500030517578
1744304530.926,130.27000427246094,82.45999908447266,209.3699951171875
1744304530.926,129.57000732421875,96.25,203.97999572753906
1744304530.926,127.47000122070312,111.58000183105469,199.00999450683594
1744304530.926,122.36000061035156,121.0999984741211,192.99000549316406
1744304530.926,112.13999938964844,121.80000305175781,186.05999755859375
1744304530.926,102.41000366210938,132.44000244140625,177.10000610351562
1744304531,84.3499984741211,136.77999877929688,164.99000549316406
1744304531,62.02000045776367,130.6199951171875,149.4499969482422
1744304531,55.22999954223633,141.82000732421875,132.22999572753906
1744304531,58.939998626708984,147.49000549316406,117.94999694824219
1744304531,57.119998931884766,120.68000030517578,104.30000305175781
1744304531,49.97999954223633,56.42000198364258,86.80000305175781
1744304531,40.38999938964844,-19.809999465942383,64.47000122070312
1744304531,24.989999771118164,-66.98999786376953,38.150001525878906
1744304531.074,9.029999732971191,-66.63999938964844,7.909999847412109
1744304531.074,-3.009999990463257,-40.880001068115234,-23.239999771118164
1744304531.074,-11.970000267028809,-24.43000030517578,-51.029998779296875
1744304531.074,-14.84000015258789,-23.8700008392334,-73.1500015258789
1744304531.074,-14.5600004196167,-27.860000610351562,-89.31999969482422
1744304531.074,-22.96000099182129,-9.869999885559082,-105.9800033569336
1744304531.074,-34.58000183105469,25.479999542236328,-96.38999938964844
1744304531.074,-8.890000343322754,0.2800000011920929,-19.739999771118164
1744304531.148,-2.380000114440918,10.149999618530273,-21
1744304531.148,-2.240000009536743,76.2300033569336,-60.130001068115234
1744304531.148,22.75,70.62999725341797,-77.9800033569336
1744304531.148,32.40999984741211,60.40999984741211,-122.98999786376953
1744304531.148,27.860000610351562,64.05000305175781,-140.55999755859375
1744304531.148,29.190000534057617,50.2599983215332,-101.91999816894531
1744304531.148,6.650000095367432,67.83000183105469,-79.23999786376953
1744304531.148,-2.309999942779541,68.80999755859375,-78.81999969482422
1744304531.222,7.139999866485596,26.739999771118164,-70.41999816894531
1744304531.222,3.7799999713897705,-38.63999938964844,-59.08000183105469
1744304531.222,-3.2899999618530273,-76.6500015258789,-52.779998779296875
1744304531.222,-4.760000228881836,-80.8499984741211,-47.880001068115234
1744304531.222,-2.940000057220459,-61.880001068115234,-41.58000183105469
1744304531.222,0.42000001668930054,-35.77000045776367,-36.959999084472656
1744304531.222,7.139999866485596,-10.149999618530273,-35.84000015258789
1744304531.222,13.579999923706055,4.130000114440918,-36.959999084472656
1744304531.296,19.670000076293945,10.779999732971191,-38.849998474121094
1744304531.296,26.46000099182129,15.470000267028809,-40.459999084472656
1744304531.296,30.380001068115234,18.969999313354492,-39.619998931884766
1744304531.296,28.21000099182129,18.34000015258789,-36.68000030517578
1744304531.296,22.96000099182129,10.5,-32.47999954223633
1744304531.296,18.549999237060547,-4.269999980926514,-25.479999542236328
1744304531.296,14.489999771118164,-22.96000099182129,-17.56999969482422
1744304531.296,12.880000114440918,-37.2400016784668,-12.109999656677246
1744304531.37,13.369999885559082,-43.119998931884766,-9.520000457763672
1744304531.37,13.440000534057617,-42.279998779296875,-8.75
1744304531.37,14.140000343322754,-34.439998626708984,-10.079999923706055
1744304531.37,16.100000381469727,-23.450000762939453,-13.510000228881836
1744304531.37,16.65999984741211,-18.200000762939453,-16.940000534057617
1744304531.37,15.75,-20.020000457763672,-18.690000534057617
1744304531.37,13.579999923706055,-26.46000099182129,-19.600000381469727
1744304531.37,10.430000305175781,-31.780000686645508,-20.579999923706055
1744304531.444,7.070000171661377,-34.369998931884766,-22.1200008392334
1744304531.444,3.9200000762939453,-33.459999084472656,-24.5
1744304531.444,1.4700000286102295,-30.59000015258789,-27.649999618530273
1744304531.444,-0.42000001668930054,-26.040000915527344,-31.219999313354492
1744304531.444,-1.6800000667572021,-21.139999389648438,-34.369998931884766
1744304531.444,-3.430000066757202,-19.25,-36.400001525878906
1744304531.444,-5.389999866485596,-19.110000610351562,-37.869998931884766
1744304531.444,-6.650000095367432,-17.290000915527344,-39.7599983215332
1744304531.518,-7.559999942779541,-15.329999923706055,-41.02000045776367
1744304531.518,-8.75,-15.470000267028809,-41.29999923706055
1744304531.518,-9.9399995803833,-15.260000228881836,-41.720001220703125
1744304531.518,-10.989999771118164,-16.450000762939453,-42.4900016784668
1744304531.518,-11.619999885559082,-16.65999984741211,-43.33000183105469
1744304531.518,-11.6899995803833,-15.399999618530273,-43.959999084472656
1744304531.518,-12.25,-12.600000381469727,-44.45000076293945
1744304531.518,-13.09000015258789,-11.40999984741211,-44.72999954223633
1744304531.592,-13.440000534057617,-12.109999656677246,-44.2400016784668
1744304531.592,-14.140000343322754,-14.210000038146973,-43.400001525878906
1744304531.592,-14.770000457763672,-15.050000190734863,-43.04999923706055
1744304531.592,-15.119999885559082,-13.859999656677246,-42.97999954223633
1744304531.592,-15.539999961853027,-12.25,-43.119998931884766
1744304531.592,-15.890000343322754,-11.40999984741211,-43.470001220703125
1744304531.592,-15.890000343322754,-11.480000495910645,-43.75
1744304531.592,-15.75,-10.569999694824219,-43.68000030517578
1744304531.667,-15.75,-9.3100004196167,-44.029998779296875
1744304531.667,-15.75,-10.149999618530273,-44.029998779296875
1744304531.667,-15.539999961853027,-10.149999618530273,-43.470001220703125
1744304531.667,-15.75,-11.199999809265137,-42.4900016784668
1744304531.667,-15.819999694824219,-12.8100004196167,-41.5099983215332
1744304531.667,-15.890000343322754,-13.510000228881836,-40.459999084472656
1744304531.667,-15.960000038146973,-13.579999923706055,-39.7599983215332
1744304531.667,-15.75,-11.899999618530273,-39.47999954223633
1744304531.741,-15.329999923706055,-11.34000015258789,-38.849998474121094
1744304531.741,-15.260000228881836,-12.319999694824219,-37.939998626708984
1744304531.741,-15.75,-13.579999923706055,-36.959999084472656
1744304531.741,-15.819999694824219,-13.720000267028809,-36.04999923706055
1744304531.741,-15.890000343322754,-13.020000457763672,-34.86000061035156
1744304531.741,-16.100000381469727,-12.039999961853027,-33.95000076293945
1744304531.741,-16.239999771118164,-13.09000015258789,-33.11000061035156
1744304531.741,-16.450000762939453,-16.450000762939453,-31.71000099182129
1744304531.815,-15.680000305175781,-20.579999923706055,-30.309999465942383
1744304531.815,-16.309999465942383,-23.450000762939453,-28.770000457763672
1744304531.815,-16.8700008392334,-24.639999389648438,-27.3700008392334
1744304531.815,-16.8700008392334,-28.489999771118164,-26.18000030517578
1744304531.815,-13.440000534057617,-35,-24.71000099182129
1744304531.815,-19.18000030517578,-39.970001220703125,-25.1299991607666
1744304531.815,-20.299999237060547,-38.150001525878906,-22.540000915527344
1744304531.815,-23.030000686645508,-39.7599983215332,-24.149999618530273
1744304531.889,-24.290000915527344,-36.540000915527344,-24.639999389648438
1744304531.889,-27.719999313354492,-32.20000076293945,-27.649999618530273
1744304531.889,-32.40999984741211,-31.639999389648438,-29.049999237060547
1744304531.889,-39.7599983215332,-39.34000015258789,-28.630001068115234
1744304531.889,-45.150001525878906,-47.18000030517578,-29.1200008392334
1744304531.889,-48.86000061035156,-53.83000183105469,-29.469999313354492
1744304531.889,-52.0099983215332,-54.810001373291016,-31.850000381469727
1744304531.889,-55.58000183105469,-55.369998931884766,-34.58000183105469
1744304531.963,-61.25,-44.099998474121094,-38.0099983215332
1744304531.963,-65.66000366210938,-34.86000061035156,-43.68000030517578
1744304531.963,-64.47000122070312,-38.779998779296875,-45.63999938964844
1744304531.963,-66.43000030517578,-43.81999969482422,-49.06999969482422
1744304531.963,-68.73999786376953,-49.84000015258789,-51.2400016784668
1744304531.963,-69.6500015258789,-45.08000183105469,-54.7400016784668
1744304531.963,-69.93000030517578,-34.369998931884766,-60.970001220703125
1744304531.963,-69.79000091552734,-28.420000076293945,-65.37999725341797
1744304532.037,-71.05000305175781,-27.790000915527344,-69.30000305175781
1744304532.037,-72.02999877929688,-32.20000076293945,-72.7300033569336
1744304532.037,-72.02999877929688,-37.029998779296875,-75.80999755859375
1744304532.037,-71.54000091552734,-37.79999923706055,-80.01000213623047
1744304532.037,-70.13999938964844,-43.959999084472656,-84.20999908447266
1744304532.037,-67.41000366210938,-42.90999984741211,-89.45999908447266
1744304532.037,-65.16999816894531,-44.029998779296875,-94.29000091552734
1744304532.037,-62.650001525878906,-44.52000045776367,-98.62999725341797
1744304532.111,-58.52000045776367,-47.11000061035156,-101.70999908447266
1744304532.111,-55.58000183105469,-45.220001220703125,-107.30999755859375
1744304532.111,-51.45000076293945,-46.970001220703125,-109.27000427246094
1744304532.111,-47.31999969482422,-39.060001373291016,-110.66999816894531
1744304532.111,-44.380001068115234,-22.889999389648438,-112.20999908447266
1744304532.111,-41.58000183105469,5.389999866485596,-116.9000015258789
1744304532.111,-40.18000030517578,30.100000381469727,-125.2300033569336
1744304532.111,-39.54999923706055,45.56999969482422,-136.9199981689453
1744304532.185,-32.900001525878906,51.17000198364258,-135.10000610351562
1744304532.185,-31.5,27.440000534057617,-114.94000244140625
1744304532.185,-32.47999954223633,4.059999942779541,-101.70999908447266
1744304532.185,-32.970001220703125,-7.210000038146973,-91.62999725341797
1744304532.185,-35.4900016784668,-9.9399995803833,-77.41999816894531
1744304532.185,-21.6299991607666,-20.15999984741211,-56.279998779296875
1744304532.185,-9.3100004196167,-54.67000198364258,-25.40999984741211
1744304532.185,-3.7100000381469727,-105.55999755859375,8.470000267028809
1744304532.259,-6.789999961853027,-144.8300018310547,30.799999237060547
1744304532.259,-12.319999694824219,-156.02999877929688,48.15999984741211
1744304532.259,-14,-152.60000610351562,65.7300033569336
1744304532.259,-8.119999885559082,-140.2100067138672,80.77999877929688
1744304532.259,-2.240000009536743,-129.63999938964844,95.19999694824219
1744304532.259,2.380000114440918,-123.62000274658203,106.95999908447266
1744304532.259,10.010000228881836,-111.09000396728516,115.98999786376953
1744304532.259,21.06999969482422,-93.44999694824219,124.11000061035156
1744304532.333,35.279998779296875,-70.7699966430664,130.5500030517578
1744304532.333,49.42000198364258,-48.439998626708984,137.6199951171875
1744304532.333,62.29999923706055,-28.700000762939453,144.75999450683594
1744304532.333,74.34000396728516,-6.860000133514404,150.0800018310547
1744304532.333,84.41999816894531,18.690000534057617,153.08999633789062
1744304532.333,91.84000396728516,50.33000183105469,153.08999633789062
1744304532.333,96.87999725341797,86.16999816894531,152.52999877929688
1744304532.333,98.7699966430664,112.91000366210938,152.25
1744304532.407,97.30000305175781,127.61000061035156,152.6699981689453
1744304532.407,92.88999938964844,128.94000244140625,154.4199981689453
1744304532.407,91,127.12000274658203,156.1699981689453
1744304532.407,91.27999877929688,125.79000091552734,155.5399932861328
1744304532.407,90.0199966430664,128.4499969482422,153.86000061035156
1744304532.407,89.04000091552734,130.8300018310547,153.44000244140625
1744304532.407,88.76000213623047,126.3499984741211,154.4199981689453
1744304532.407,88.4800033569336,118.16000366210938,155.0500030517578
1744304532.481,89.45999908447266,112.55999755859375,154.6300048828125
1744304532.481,91.84000396728516,113.4000015258789,151.6199951171875
1744304532.481,94.29000091552734,119.3499984741211,146.86000061035156
1744304532.481,96.11000061035156,125.93000030517578,141.9600067138672
1744304532.481,98,129.2899932861328,138.0399932861328
1744304532.481,99.33000183105469,129.22000122070312,134.9600067138672
1744304532.481,100.30999755859375,126.9800033569336,132.5800018310547
1744304532.481,101.29000091552734,126,130.05999755859375
1744304532.555,102.62000274658203,126,127.54000091552734
1744304532.555,102.4800033569336,124.52999877929688,124.87999725341797
1744304532.555,100.87000274658203,121.16999816894531,122.63999938964844
1744304532.555,99.05000305175781,116.05999755859375,121.0999984741211
1744304532.555,97.51000213623047,110.45999908447266,119.62999725341797
1744304532.555,96.52999877929688,104.2300033569336,117.04000091552734
1744304532.555,95.2699966430664,97.37000274658203,115.08000183105469
1744304532.555,92.88999938964844,89.80999755859375,112.84000396728516
1744304532.629,89.25,80.43000030517578,110.66999816894531
1744304532.629,88.76000213623047,86.80000305175781,108.43000030517578
1744304532.629,78.88999938964844,84.41999816894531,105.3499984741211
1744304532.629,62.790000915527344,70.69999694824219,103.11000061035156
1744304532.629,57.540000915527344,62.58000183105469,98.41999816894531
1744304532.629,57.68000030517578,63.84000015258789,92.81999969482422
1744304532.629,51.310001373291016,54.040000915527344,87.01000213623047
1744304532.629,43.400001525878906,38.220001220703125,81.55000305175781
1744304532.703,40.18000030517578,12.180000305175781,77
1744304532.703,40.529998779296875,-14.420000076293945,71.19000244140625
1744304532.703,38.220001220703125,-35.90999984741211,61.31999969482422
1744304532.703,33.599998474121094,-46.7599983215332,49.349998474121094
1744304532.703,27.440000534057617,-51.099998474121094,36.2599983215332
1744304532.703,19.389999389648438,-50.470001220703125,23.030000686645508
1744304532.703,11.550000190734863,-46.619998931884766,10.989999771118164
1744304532.703,5.599999904632568,-41.02000045776367,-0.9100000262260437
1744304532.777,1.1200000047683716,-36.2599983215332,-12.109999656677246
1744304532.777,-2.870000123977661,-34.09000015258789,-22.049999237060547
1744304532.777,-6.090000152587891,-33.529998779296875,-32.20000076293945
1744304532.777,-8.399999618530273,-30.100000381469727,-41.790000915527344
1744304532.777,-10.289999961853027,-24.149999618530273,-50.81999969482422
1744304532.777,-12.739999771118164,-17.56999969482422,-58.029998779296875
1744304532.777,-15.119999885559082,-13.579999923706055,-64.19000244140625
1744304532.777,-16.450000762939453,-11.619999885559082,-69.86000061035156
1744304532.851,-17.989999771118164,-12.109999656677246,-74.97000122070312
1744304532.851,-20.09000015258789,-13.510000228881836,-79.59000396728516
1744304532.851,-21.700000762939453,-11.40999984741211,-84.41999816894531
1744304532.851,-23.59000015258789,-7.349999904632568,-89.25
1744304532.851,-24.920000076293945,-1.1200000047683716,-95.05999755859375
1744304532.851,-24.43000030517578,3.7799999713897705,-100.94000244140625
1744304532.851,-33.18000030517578,-7.630000114440918,-109.19999694824219
1744304532.851,7.070000171661377,67.83000183105469,-49.42000198364258
1744304532.925,38.849998474121094,-20.93000030517578,66.98999786376953
1744304532.925,10.430000305175781,2.0299999713897705,33.810001373291016
1744304532.925,19.18000030517578,124.87999725341797,-25.479999542236328
1744304532.925,28.90999984741211,101.91999816894531,-44.2400016784668
1744304532.925,10.010000228881836,78.75,-113.95999908447266
1744304532.925,-2.0999999046325684,36.68000030517578,-103.80999755859375
1744304532.925,-0.5600000023841858,-7.420000076293945,-38.56999969482422
1744304532.925,-0.07000000029802322,20.3700008392334,-27.860000610351562
1744304533,8.960000038146973,69.51000213623047,-49.279998779296875
1744304533,11.34000015258789,69.09000396728516,-75.73999786376953
1744304533,0.2800000011920929,22.96000099182129,-78.75
1744304533,-7.630000114440918,-19.110000610351562,-56.4900016784668
1744304533,-9.65999984741211,-40.25,-42.560001373291016
1744304533,-9.9399995803833,-39.619998931884766,-47.7400016784668
1744304533,-6.720000267028809,-29.75,-56.06999969482422
1744304533,-5.53000020980835,-30.309999465942383,-57.189998626708984
1744304533.074,-8.260000228881836,-34.369998931884766,-53.47999954223633
1744304533.074,-8.050000190734863,-27.229999542236328,-53.27000045776367
1744304533.074,-5.53000020980835,-12.670000076293945,-59.01000213623047
1744304533.074,-3.2899999618530273,2.240000009536743,-63.97999954223633
1744304533.074,-2.450000047683716,10.359999656677246,-63
1744304533.074,-4.550000190734863,9.100000381469727,-59.290000915527344
1744304533.074,-8.399999618530273,-2.240000009536743,-54.95000076293945
1744304533.074,-11.550000190734863,-18.969999313354492,-49.06999969482422
1744304533.148,-13.859999656677246,-31.43000030517578,-43.470001220703125
1744304533.148,-16.239999771118164,-39.130001068115234,-41.15999984741211
1744304533.148,-17.219999313354492,-38.220001220703125,-40.95000076293945
1744304533.148,-17.360000610351562,-35.4900016784668,-41.86000061035156
1744304533.148,-18.1299991607666,-33.31999969482422,-43.189998626708984
1744304533.148,-18.899999618530273,-30.65999984741211,-45.08000183105469
1744304533.148,-20.229999542236328,-30.65999984741211,-46.54999923706055
1744304533.148,-22.049999237060547,-31.149999618530273,-47.810001373291016
1744304533.222,-23.65999984741211,-30.100000381469727,-49.90999984741211
1744304533.222,-24.56999969482422,-27.229999542236328,-51.869998931884766
1744304533.222,-25.549999237060547,-25.969999313354492,-52.92000198364258
1744304533.222,-25.829999923706055,-25.40999984741211,-53.76000213623047
1744304533.222,-25.829999923706055,-25.6200008392334,-53.970001220703125
1744304533.222,-26.110000610351562,-27.719999313354492,-53.619998931884766
1744304533.222,-26.040000915527344,-27.020000457763672,-53.27000045776367
1744304533.222,-24.639999389648438,-22.469999313354492,-53.47999954223633
1744304533.296,-23.100000381469727,-16.940000534057617,-53.34000015258789
1744304533.296,-22.469999313354492,-14.350000381469727,-52.08000183105469
1744304533.296,-21.979999542236328,-15.470000267028809,-50.2599983215332
1744304533.296,-21.6299991607666,-17.010000228881836,-47.95000076293945
1744304533.296,-21.21000099182129,-17.360000610351562,-45.56999969482422
1744304533.296,-21,-15.050000190734863,-43.68000030517578
1744304533.296,-20.229999542236328,-12.180000305175781,-42.209999084472656
1744304533.296,-19.25,-10.5,-40.25
1744304533.37,-18.549999237060547,-11.0600004196167,-37.79999923706055
1744304533.37,-18.1299991607666,-13.789999961853027,-35.13999938964844
1744304533.37,-17.920000076293945,-17.56999969482422,-32.27000045776367
1744304533.37,-18.200000762939453,-20.93000030517578,-29.540000915527344
1744304533.37,-19.25,-23.8700008392334,-27.15999984741211
1744304533.37,-21.350000381469727,-27.440000534057617,-24.920000076293945
1744304533.37,-22.75,-31.010000228881836,-23.030000686645508
1744304533.37,-25.1299991607666,-36.189998626708984,-21.139999389648438
1744304533.444,-26.739999771118164,-39.47999954223633,-20.15999984741211
1744304533.444,-26.950000762939453,-39.7599983215332,-20.299999237060547
1744304533.444,-27.719999313354492,-39.34000015258789,-21.559999465942383
1744304533.444,-28.06999969482422,-39.619998931884766,-23.729999542236328
1744304533.444,-32.34000015258789,-42.4900016784668,-27.299999237060547
1744304533.444,-35.84000015258789,-38.5,-28.84000015258789
1744304533.444,-40.459999084472656,-40.459999084472656,-31.920000076293945
1744304533.444,-45.43000030517578,-39.54999923706055,-35.560001373291016
1744304533.518,-50.33000183105469,-33.880001068115234,-40.880001068115234
1744304533.518,-55.93000030517578,-30.450000762939453,-45.709999084472656
1744304533.518,-61.25,-27.510000228881836,-51.59000015258789
1744304533.518,-65.94000244140625,-28.489999771118164,-56.560001373291016
1744304533.518,-70.62999725341797,-32.060001373291016,-60.34000015258789
1744304533.518,-75.66999816894531,-35.13999938964844,-64.81999969482422
1744304533.518,-79.30999755859375,-37.099998474121094,-69.16000366210938
1744304533.518,-82.18000030517578,-39.34000015258789,-73.22000122070312
1744304533.592,-83.58000183105469,-38.9900016784668,-77.48999786376953
1744304533.592,-84.9800033569336,-42.4900016784668,-80.63999938964844
1744304533.592,-86.16999816894531,-44.59000015258789,-83.6500015258789
1744304533.592,-88.4800033569336,-44.310001373291016,-87.1500015258789
1744304533.592,-92.81999969482422,-40.599998474121094,-89.25
1744304533.592,-93.5199966430664,-15.050000190734863,-98.13999938964844
1744304533.592,-87.77999877929688,-10.430000305175781,-103.52999877929688
1744304533.592,-84.7699966430664,-21.6299991607666,-106.12000274658203
1744304533.666,-82.18000030517578,-43.88999938964844,-108.8499984741211
1744304533.666,-78.47000122070312,-60.83000183105469,-113.88999938964844
1744304533.666,-75.87999725341797,-80.43000030517578,-118.09000396728516
1744304533.666,-74.12999725341797,-86.59000396728516,-124.73999786376953
1744304533.666,-68.45999908447266,-83.86000061035156,-131.9499969482422
1744304533.666,-59.43000030517578,-86.59000396728516,-134.6800079345703
1744304533.666,-53.83000183105469,-76.86000061035156,-135.72999572753906
1744304533.666,-50.33000183105469,-42.42000198364258,-143.5
1744304533.74,-56.560001373291016,4.480000019073486,-161.27999877929688
1744304533.74,-51.869998931884766,67.05999755859375,-179.1300048828125
1744304533.74,-38.849998474121094,70,-168.6300048828125
1744304533.74,-29.540000915527344,12.390000343322754,-131.38999938964844
1744304533.74,-22.049999237060547,-40.7400016784668,-104.93000030517578
1744304533.74,-19.389999389648438,-76.2300033569336,-82.25
1744304533.74,-11.199999809265137,-102.83000183105469,-59.709999084472656
1744304533.74,-10.079999923706055,-142.3800048828125,-27.790000915527344
1744304533.814,-11.760000228881836,-176.6800079345703,3.009999990463257
1744304533.814,-10.010000228881836,-180.4600067138672,21.90999984741211
1744304533.814,-5.949999809265137,-155.9600067138672,36.88999938964844
1744304533.814,3.9200000762939453,-109.83000183105469,51.099998474121094
1744304533.814,18.690000534057617,-57.959999084472656,63.209999084472656
1744304533.814,33.67000198364258,-22.399999618530273,73.98999786376953
1744304533.814,46.47999954223633,-9.59000015258789,85.33000183105469
1744304533.814,57.68000030517578,-3.2200000286102295,96.25
1744304533.888,71.75,5.25,107.16999816894531
1744304533.888,89.38999938964844,9.029999732971191,118.51000213623047
1744304533.888,106.26000213623047,8.050000190734863,130.89999389648438
1744304533.888,120.95999908447266,4.760000228881836,142.58999633789062
1744304533.888,134.47000122070312,2.6600000858306885,153.5800018310547
1744304533.888,147.49000549316406,3.640000104904175,163.94000244140625
1744304533.888,158.8300018310547,4.340000152587891,174.02000427246094
1744304533.888,166.0399932861328,3.3600001335144043,181.3699951171875
1744304533.962,169.39999389648438,0.9100000262260437,185.5
1744304533.962,171.77999877929688,-3.1500000953674316,189.35000610351562
1744304533.962,173.8800048828125,-9.730000495910645,193.69000244140625
1744304533.962,174.7899932861328,-18.059999465942383,197.9600067138672
1744304533.962,178.00999450683594,-19.670000076293945,199.22000122070312
1744304533.962,181.5800018310547,-15.609999656677246,197.61000061035156
1744304533.962,183.1199951171875,-3.430000066757202,194.4600067138672
1744304533.962,183.5399932861328,12.109999656677246,191.4499969482422
1744304534.036,184.3800048828125,28.06999969482422,188.50999450683594
1744304534.036,185.57000732421875,41.58000183105469,185.85000610351562
1744304534.036,184.8000030517578,52.709999084472656,182.4199981689453
1744304534.036,181.3000030517578,62.369998931884766,177.8000030517578
1744304534.036,175.2100067138672,67.34000396728516,173.52999877929688
1744304534.036,167.3699951171875,68.66999816894531,169.1199951171875
1744304534.036,159.0399932861328,68.73999786376953,164.7100067138672
1744304534.036,149.94000244140625,70.55999755859375,161.13999938964844
1744304534.11,141.88999938964844,74.69000244140625,157.14999389648438
1744304534.11,133.77000427246094,78.4000015258789,150.85000610351562
1744304534.11,125.93000030517578,82.66999816894531,143.36000061035156
1744304534.11,119.62999725341797,90.37000274658203,135.58999633789062
1744304534.11,111.09000396728516,98.91000366210938,125.2300033569336
1744304534.11,98.3499984741211,110.5999984741211,112.77000427246094
1744304534.11,83.58000183105469,117.94999694824219,99.61000061035156
1744304534.11,72.16999816894531,123.62000274658203,87.91999816894531
1744304534.184,66.8499984741211,124.66999816894531,76.79000091552734
1744304534.184,57.68000030517578,101.36000061035156,59.779998779296875
1744304534.184,47.38999938964844,73.29000091552734,39.060001373291016
1744304534.184,37.099998474121094,52.56999969482422,14.770000457763672
1744304534.184,24.71000099182129,51.45000076293945,-12.319999694824219
1744304534.184,11.34000015258789,61.880001068115234,-39.619998931884766
1744304534.184,-2.0299999713897705,66.1500015258789,-65.87000274658203
1744304534.184,-13.15999984741211,62.58000183105469,-88.2699966430664
1744304534.258,-19.739999771118164,58.45000076293945,-105.3499984741211
1744304534.258,-23.940000534057617,58.59000015258789,-120.19000244140625
1744304534.258,-27.440000534057617,60.970001220703125,-133.55999755859375
1744304534.258,-49.90999984741211,63.349998474121094,-145.9499969482422
1744304534.258,-50.88999938964844,112.91000366210938,-140.97999572753906
1744304534.258,-18.549999237060547,69.16000366210938,-37.65999984741211
1744304534.258,-12.739999771118164,99.33000183105469,-20.020000457763672
1744304534.258,-8.119999885559082,169.47000122070312,-72.44999694824219
1744304534.333,9.65999984741211,143.00999450683594,-123.41000366210938
1744304534.333,25.969999313354492,99.12000274658203,-174.02000427246094
1744304534.333,19.31999969482422,57.75,-153.7899932861328
1744304534.333,-6.789999961853027,44.65999984741211,-92.95999908447266
1744304534.333,-25.059999465942383,86.87000274658203,-87.1500015258789
1744304534.333,-23.520000457763672,57.04999923706055,-85.47000122070312
1744304534.333,-16.940000534057617,-35.349998474121094,-72.94000244140625
1744304534.333,-26.110000610351562,-122.70999908447266,-59.849998474121094
1744304534.407,-31.219999313354492,-148.6800079345703,-47.459999084472656
1744304534.407,-23.59000015258789,-109.62000274658203,-49.349998474121094
1744304534.407,-12.880000114440918,-41.15999984741211,-64.05000305175781
1744304534.407,-10.569999694824219,14.210000038146973,-75.18000030517578
1744304534.407,-8.470000267028809,42.77000045776367,-73.63999938964844
1744304534.407,-7.699999809265137,28.84000015258789,-68.94999694824219
1744304534.407,-10.710000038146973,-8.75,-64.54000091552734
1744304534.407,-14.420000076293945,-46.689998626708984,-54.11000061035156
1744304534.481,-16.65999984741211,-66.70999908447266,-46.20000076293945
1744304534.481,-17.639999389648438,-57.959999084472656,-45.63999938964844
1744304534.481,-17.920000076293945,-35.209999084472656,-49.06999969482422
1744304534.481,-17.920000076293945,-24.56999969482422,-51.2400016784668
1744304534.481,-17.920000076293945,-27.299999237060547,-50.540000915527344
1744304534.481,-18.059999465942383,-33.18000030517578,-49.42000198364258
1744304534.481,-17.639999389648438,-36.88999938964844,-48.369998931884766
1744304534.481,-17.71000099182129,-40.18000030517578,-46.83000183105469
1744304534.555,-17.5,-41.790000915527344,-45.709999084472656
1744304534.555,-17.079999923706055,-41.369998931884766,-45.220001220703125
1744304534.555,-17.149999618530273,-37.310001373291016,-45.290000915527344
1744304534.555,-17.920000076293945,-32.689998626708984,-45.63999938964844
1744304534.555,-18.200000762939453,-30.940000534057617,-45.0099983215332
1744304534.555,-18.899999618530273,-31.989999771118164,-43.959999084472656
1744304534.555,-20.579999923706055,-33.25,-43.2599983215332
1744304534.555,-21.700000762939453,-33.11000061035156,-42.4900016784668
