                                                                                LinearAcceleration                                                              10.04.2519.43.20104 
Timestamp,AccX,AccY,AccZ
1744304518.912,-2.7949166297912598,10.519224166870117,2.3929080963134766
1744304518.912,-2.928919553756714,10.332576751708984,2.0196144580841064
1744304518.912,-3.000706672668457,10.418722152709961,1.6558923721313477
1744304518.912,-2.7662017345428467,11.438100814819336,1.5266753435134888
1744304518.912,-2.359407424926758,12.687198638916016,2.1057591438293457
1744304518.912,-1.9908995628356934,12.6393404006958,2.6178414821624756
1744304518.912,-1.5888910293579102,12.323476791381836,2.5556259155273438
1744304518.912,-1.416601538658142,12.376120567321777,0.7178724408149719
1744304518.986,-1.7611804008483887,11.835323333740234,0.4833674430847168
1744304518.986,-2.053115129470825,10.87816047668457,-0.08135887235403061
1744304518.986,-1.5410327911376953,9.99278450012207,-0.2919347882270813
1744304518.986,-0.765730619430542,9.38498592376709,-0.07657305896282196
1744304518.986,-0.11485958844423294,8.815473556518555,0.0909305065870285
1744304518.986,0.07178724557161331,8.269890785217285,-0.04307234659790993
1744304518.986,0.22493335604667664,7.9779558181762695,-0.13400284945964813
1744304518.986,0.4211518168449402,8.145459175109863,-0.07657305896282196
1744304519.06,0.6221560835838318,8.542681694030762,-0.22493335604667664
1744304519.06,1.0385221242904663,8.973404884338379,-0.8327320218086243
1744304519.06,1.3783150911331177,9.504631042480469,-0.12443122267723083
1744304519.06,1.718108057975769,9.997570037841797,-0.540797233581543
1744304519.06,1.6750357151031494,10.34693431854248,-0.5790837407112122
1744304519.06,1.0385221242904663,10.509652137756348,0.4833674430847168
1744304519.06,-0.08614469319581985,10.586225509643555,0.4737958014011383
1744304519.06,-0.9428057670593262,10.69629955291748,0.25843408703804016
1744304519.134,-1.521889567375183,10.413935661315918,0.27757734060287476
1744304519.134,-1.8712540864944458,9.949711799621582,0.5120823383331299
1744304519.134,-1.9526129961013794,9.657776832580566,0.765730619430542
1744304519.134,-2.0770442485809326,9.332341194152832,1.2586696147918701
1744304519.134,-1.6032484769821167,9.456772804260254,0.08614469319581985
1744304519.134,-1.0768086910247803,9.198338508605957,0.4307234585285187
1744304519.134,-0.44029510021209717,9.03562068939209,1.0098072290420532
1744304519.134,0.07657305896282196,8.911190032958984,1.1820966005325317
1744304519.209,0.32543548941612244,8.628826141357422,1.2538838386535645
1744304519.209,0.12443122267723083,8.437394142150879,0.9093050956726074
1744304519.209,-0.16271774470806122,8.111958503723145,0.9140908718109131
1744304519.209,-0.3924369215965271,7.7673797607421875,0.952377438545227
1744304519.209,-0.5982270240783691,7.671663284301758,0.6748000979423523
1744304519.209,-0.6652284264564514,7.738664627075195,0.7322298884391785
1744304519.209,-0.5982270240783691,7.858310222625732,0.9380199909210205
1744304519.209,-0.382865309715271,8.2124605178833,1.081594467163086
1744304519.283,-0.2919347882270813,8.456537246704102,1.3735291957855225
1744304519.283,-0.32543548941612244,8.600111961364746,1.0145930051803589
1744304519.283,-0.2919347882270813,8.820259094238281,0.8040171265602112
1744304519.283,-0.23450499773025513,8.963833808898926,1.0337363481521606
1744304519.283,0.03828652948141098,9.198338508605957,1.2155972719192505
1744304519.283,0.3350071310997009,9.456772804260254,1.0050214529037476
1744304519.283,0.521653950214386,9.581204414367676,1.1007376909255981
1744304519.283,0.44986671209335327,9.700849533081055,1.1438100337982178
1744304519.357,0.31586387753486633,9.772636413574219,1.0863802433013916
1744304519.357,0.12921704351902008,9.82528018951416,0.7800880670547485
1744304519.357,-0.05264397710561752,9.724778175354004,0.540797233581543
1744304519.357,-0.13878867030143738,9.772636413574219,0.6604426503181458
1744304519.357,-0.2105759084224701,9.729564666748047,0.5025107264518738
1744304519.357,0,9.954497337341309,0.46900999546051025
1744304519.357,0.13400284945964813,10.212931632995605,0.7561589479446411
1744304519.357,0.23929080367088318,10.476151466369629,0.8040171265602112
1744304519.431,0.3206496834754944,10.8685884475708,0.8183745741844177
1744304519.431,0.2823631465435028,10.887731552124023,0.9093050956726074
1744304519.431,0.15793193876743317,10.78244400024414,0.8375178575515747
1744304519.431,-0.04307234659790993,10.629298210144043,1.043307900428772
1744304519.431,-0.24886244535446167,10.619726181030273,1.2538838386535645
1744304519.431,-0.4642241597175598,10.835087776184082,1.3831008672714233
1744304519.431,-0.8805902004241943,11.390242576599121,1.3639576435089111
1744304519.431,-1.2634555101394653,12.199045181274414,1.5553902387619019
1744304519.505,-1.7468229532241821,12.83077335357666,1.6941789388656616
1744304519.505,-2.388122320175171,13.151422500610352,2.0674726963043213
1744304519.505,-2.9337053298950195,12.677626609802246,2.2014753818511963
1744304519.505,-3.6659352779388428,11.33759880065918,1.1725249290466309
1744304519.505,-4.0152997970581055,10.093286514282227,0.39722275733947754
1744304519.505,-3.5654330253601074,9.145694732666016,0.5455830693244934
1744304519.505,-2.909776210784912,8.30817699432373,0.26800569891929626
1744304519.505,-2.5316967964172363,7.64773416519165,0.18664683401584625
1744304519.58,-2.359407424926758,7.3797287940979,0.30629223585128784
1744304519.58,-2.3833365440368652,7.810451984405518,-0.03828652948141098
1744304519.58,-2.5412683486938477,9.504631042480469,-0.7226582169532776
1744304519.58,-2.4264087677001953,10.725013732910156,0.5360113978385925
1744304519.58,-1.9191123247146606,11.653462409973145,0.08614469319581985
1744304519.58,-1.679821491241455,12.313904762268066,0.49772489070892334
1744304519.58,-1.7085363864898682,12.754199981689453,1.416601538658142
1744304519.58,-1.9765421152114868,12.763772010803223,1.2060257196426392
1744304519.654,-2.5460541248321533,12.471837043762207,0.15314611792564392
1744304519.654,-2.8475606441497803,11.323241233825684,0.6173703074455261
1744304519.654,-2.8714897632598877,10.366077423095703,1.1198810338974
1744304519.654,-2.6178414821624756,9.667348861694336,0.9571632146835327
1744304519.654,-2.565197467803955,9.198338508605957,0.8758043646812439
1744304519.654,-2.359407424926758,8.638398170471191,0.9380199909210205
1744304519.654,-2.191903829574585,8.327320098876953,0.7705163955688477
1744304519.654,-2.0483293533325195,8.107172966003418,0.5025107264518738
1744304519.728,-1.9095406532287598,8.001884460449219,0.5790837407112122
1744304519.728,-1.7755378484725952,7.858310222625732,0.9140908718109131
1744304519.728,-1.584105134010315,7.74345064163208,1.043307900428772
1744304519.728,-1.3639576435089111,7.805665969848633,0.9763064980506897
1744304519.728,-1.3017419576644897,7.930097579956055,0.9906639456748962
1744304519.728,-1.4740313291549683,8.0736722946167,1.1916682720184326
1744304519.728,-1.679821491241455,8.269890785217285,1.0098072290420532
1744304519.728,-1.8521108627319336,8.34167766571045,0.7992312908172607
1744304519.802,-1.799466848373413,8.327320098876953,1.1055235862731934
1744304519.802,-1.6080342531204224,8.375178337097168,0.9332341551780701
1744304519.802,-1.3735291957855225,8.446965217590332,0.8231604099273682
1744304519.802,-1.3639576435089111,8.451751708984375,0.9954497814178467
1744304519.802,-1.1438100337982178,8.475680351257324,1.2251689434051514
1744304519.802,-1.0385221242904663,8.384750366210938,1.0002355575561523
1744304519.802,-0.952377438545227,8.279461860656738,1.110309362411499
1744304519.802,-1.043307900428772,8.24596118927002,1.2155972719192505
1744304519.876,-1.0385221242904663,8.202888488769531,1.4309589862823486
1744304519.876,-1.1820966005325317,8.241175651550293,1.1677391529083252
1744304519.876,-1.3304568529129028,8.279461860656738,1.0098072290420532
1744304519.876,-1.426173210144043,8.312962532043457,1.1868823766708374
1744304519.876,-1.4883887767791748,8.389535903930664,1.148595929145813
1744304519.876,-1.4788172245025635,8.250746726989746,0.8135887384414673
1744304519.876,-1.4692455530166626,8.174174308776855,0.8566610813140869
1744304519.876,-1.416601538658142,8.178959846496582,1.1055235862731934
1744304519.951,-1.2347406148910522,8.116744041442871,1.177310824394226
1744304519.951,-1.2490980625152588,8.188531875610352,0.9906639456748962
1744304519.951,-1.306527853012085,8.317748069763184,0.7035149931907654
1744304519.951,-1.2921704053878784,8.356035232543945,0.7130866050720215
1744304519.951,-1.3160994052886963,8.557039260864258,0.727444052696228
1744304519.951,-1.4022440910339355,8.75804328918457,0.8758043646812439
1744304519.951,-1.517103672027588,9.13133716583252,1.0385221242904663
1744304519.951,-1.6654640436172485,9.303627014160156,1.1342384815216064
1744304520.025,-1.837753415107727,9.600347518920898,1.148595929145813
1744304520.025,-1.8712540864944458,9.964069366455078,1.464459776878357
1744304520.025,-2.0483293533325195,10.25121784210205,1.9191123247146606
1744304520.025,-2.1823322772979736,10.308648109436035,1.837753415107727
1744304520.025,-2.0961875915527344,10.524009704589844,2.0052568912506104
1744304520.025,-1.9908995628356934,10.638869285583496,2.115330696105957
1744304520.025,-2.1823322772979736,10.911661148071289,1.689393162727356
1744304520.025,-2.3067634105682373,11.356741905212402,1.7276796102523804
1744304520.099,-2.311549186706543,11.730035781860352,2.4264087677001953
1744304520.099,-2.464695453643799,12.31869125366211,1.517103672027588
1744304520.099,-2.6561279296875,13.060492515563965,0.952377438545227
1744304520.099,-2.5316967964172363,13.43857192993164,1.6606782674789429
1744304520.099,-2.431194543838501,13.744864463806152,1.0480937957763672
1744304520.099,-2.6800570487976074,14.189945220947266,0.07178724557161331
1744304520.099,-2.8140599727630615,15.02746295928955,0.32543548941612244
1744304520.099,-2.5125534534454346,15.711834907531738,-0.12921704351902008
1744304520.173,-2.1679747104644775,16.180845260620117,-1.2778129577636719
1744304520.173,-1.359171748161316,15.922410011291504,-0.8135887384414673
1744304520.173,-0.5503688454627991,14.936532020568848,-0.1005021408200264
1744304520.173,0.014357448555529118,13.988940238952637,-1.043307900428772
1744304520.173,0.3541503846645355,12.749414443969727,-1.799466848373413
1744304520.173,0.38765111565589905,11.66781997680664,-2.522125244140625
1744304520.173,0.41636601090431213,10.72022819519043,-3.2304258346557617
1744304520.173,0.5120823383331299,10.203360557556152,-3.584576368331909
1744304520.248,0.6269419193267822,9.89706802368164,-3.9578700065612793
1744304520.248,0.6173703074455261,9.973641395568848,-4.163660049438477
1744304520.248,0.5599405169487,10.122001647949219,-3.9243693351745605
1744304520.248,0.2536482512950897,10.667584419250488,-3.6563634872436523
1744304520.248,0.05264397710561752,11.098307609558105,-3.68986439704895
1744304520.248,-0.08135887235403061,11.237096786499023,-3.4027152061462402
1744304520.248,-0.22971917688846588,11.261025428771973,-3.048564910888672
1744304520.248,-0.26800569891929626,11.15573787689209,-3.091637372970581
1744304520.322,-0.4450809061527252,10.801587104797363,-3.034207344055176
1744304520.322,-0.32543548941612244,10.179430961608887,-2.928919553756714
1744304520.322,-0.21536172926425934,9.820494651794434,-3.0677082538604736
1744304520.322,-0.09571632742881775,9.590775489807129,-2.9528486728668213
1744304520.322,0.023929081857204437,9.509416580200195,-2.713557720184326
1744304520.322,0.24407662451267242,9.404129028320312,-2.7662017345428467
1744304520.322,0.4211518168449402,8.858545303344727,-2.507767677307129
1744304520.322,0.45943835377693176,8.647970199584961,-2.0052568912506104
1744304520.397,0.4307234585285187,8.356035232543945,-1.8951832056045532
1744304520.397,0.3541503846645355,8.461322784423828,-1.9334697723388672
1744304520.397,0.29672059416770935,8.437394142150879,-1.454888105392456
1744304520.397,0.181861013174057,8.628826141357422,-0.8375178575515747
1744304520.397,0.17707519233226776,8.935118675231934,-0.540797233581543
1744304520.397,0.009571632370352745,9.140909194946289,-0.5025107264518738
1744304520.397,-0.09571632742881775,8.896832466125488,-0.05264397710561752
1744304520.397,0.023929081857204437,8.676684379577637,-0.014357448555529118
1744304520.471,0.11964540183544159,8.446965217590332,-0.3206496834754944
1744304520.471,0.14357449114322662,8.140673637390137,-0.15314611792564392
1744304520.471,0.22493335604667664,7.6908063888549805,0.17707519233226776
1744304520.471,0.16750356554985046,7.355799674987793,0.22493335604667664
1744304520.471,0.08614469319581985,6.733643531799316,0.32543548941612244
1744304520.471,0.12443122267723083,6.374707221984863,0.39722275733947754
1744304520.471,0,5.9966278076171875,0.4929390549659729
1744304520.471,-0.14357449114322662,5.9966278076171875,0.31586387753486633
1744304520.545,-0.15793193876743317,6.030128479003906,0.43550926446914673
1744304520.545,0.17707519233226776,5.958341121673584,1.043307900428772
1744304520.545,0.46900999546051025,6.01577091217041,1.2251689434051514
1744304520.545,0.5742979645729065,6.178488731384277,1.0911661386489868
1744304520.545,0.5455830693244934,6.255061626434326,1.0624512434005737
1744304520.545,0.3350071310997009,6.408207893371582,1.4405306577682495
1744304520.545,0.2823631465435028,6.647498607635498,1.8856115341186523
1744304520.545,0.181861013174057,6.94421911239624,1.9813278913497925
1744304520.62,0.14836029708385468,7.0830078125,1.9861136674880981
1744304520.62,0.10528795421123505,7.1500091552734375,1.4692455530166626
1744304520.62,0.14357449114322662,7.3175129890441895,1.5888910293579102
1744304520.62,0.29672059416770935,7.513731479644775,1.8616825342178345
1744304520.62,0.4450809061527252,7.705163955688477,1.9621846675872803
1744304520.62,0.13878867030143738,8.059314727783203,2.4072654247283936
1744304520.62,-0.15314611792564392,8.51396656036377,2.4216229915618896
1744304520.62,-0.36850783228874207,8.92554759979248,2.148831367492676
1744304520.694,-0.44986671209335327,9.203125,2.0291860103607178
1744304520.694,-0.5168681740760803,9.37541389465332,3.16821026802063
1744304520.694,-0.3110780417919159,9.633848190307617,3.4027152061462402
1744304520.694,-0.14836029708385468,9.82528018951416,2.6561279296875
1744304520.694,-0.014357448555529118,9.849209785461426,2.8475606441497803
1744304520.694,0.028714897111058235,9.686491966247559,2.957634449005127
1744304520.694,-0.023929081857204437,9.562060356140137,2.6800570487976074
1744304520.694,-0.10528795421123505,9.203125,2.5891265869140625
1744304520.768,-0.08135887235403061,8.877689361572266,2.6513421535491943
1744304520.768,-0.08135887235403061,8.738900184631348,2.593912363052368
1744304520.768,-0.05264397710561752,8.595325469970703,2.373764753341675
1744304520.768,0.1005021408200264,8.537896156311035,2.47426700592041
1744304520.768,0.11007377505302429,8.662327766418457,2.5891265869140625
1744304520.768,0.023929081857204437,8.781972885131836,2.627413034439087
1744304520.768,-0.15793193876743317,8.810688018798828,2.493410348892212
1744304520.768,-0.23450499773025513,8.877689361572266,2.4264087677001953
1744304520.842,-0.23929080367088318,8.997334480285645,2.5125534534454346
1744304520.842,-0.22014755010604858,9.073907852172852,2.4359803199768066
1744304520.842,-0.028714897111058235,9.030835151672363,2.3354783058166504
1744304520.842,0.07657305896282196,9.136122703552246,2.28283429145813
1744304520.842,0.18664683401584625,9.188767433166504,2.4551236629486084
1744304520.842,0.4546525478363037,9.380199432373047,2.1201164722442627
1744304520.842,0.5551546812057495,9.518988609313965,2.2254045009613037
1744304520.842,0.5312256217002869,9.7391357421875,2.340264081954956
1744304520.917,0.4450809061527252,9.887495994567871,2.5269110202789307
1744304520.917,0.23929080367088318,10.002355575561523,2.3929080963134766
1744304520.917,0.047858163714408875,10.256004333496094,2.3450498580932617
1744304520.917,0.028714897111058235,10.447436332702637,2.6800570487976074
1744304520.917,-0.12921704351902008,10.748943328857422,2.5412683486938477
1744304520.917,-0.25843408703804016,11.203596115112305,2.2254045009613037
1744304520.917,-0.521653950214386,12.074614524841309,2.297191858291626
1744304520.917,-0.952377438545227,13.175352096557617,2.4216229915618896
1744304520.991,-1.3783150911331177,13.156208992004395,2.4981961250305176
1744304520.991,-1.5506044626235962,12.419193267822266,2.3354783058166504
1744304520.991,-1.5936768054962158,12.199045181274414,1.2108114957809448
1744304520.991,-1.3543859720230103,12.816415786743164,0.44029510021209717
1744304520.991,-1.0959519147872925,12.82120132446289,0.8183745741844177
1744304520.991,-0.9093050956726074,12.677626609802246,1.0624512434005737
1744304520.991,-0.7848738431930542,12.481409072875977,0.8566610813140869
1744304520.991,-0.9332341551780701,12.045899391174316,0.0909305065870285
1744304521.065,-1.229954719543457,11.529030799865723,-0.22493335604667664
1744304521.065,-1.5362470149993896,10.839873313903809,-0.15793193876743317
1744304521.065,-1.7468229532241821,10.107644081115723,-0.13878867030143738
1744304521.065,-1.8712540864944458,9.39934253692627,-0.13400284945964813
1744304521.065,-2.28283429145813,8.748472213745117,-0.31586387753486633
1744304521.065,-2.6369848251342773,8.059314727783203,-0.35893622040748596
1744304521.065,-2.7279152870178223,7.499373912811279,-0.339792937040329
1744304521.065,-2.431194543838501,7.102151393890381,-0.13400284945964813
1744304521.139,-2.129688262939453,6.76235818862915,-0.26800569891929626
1744304521.139,-1.8425391912460327,7.346227645874023,-0.6077986359596252
1744304521.139,-1.5075321197509766,8.04017162322998,0.05742979422211647
1744304521.139,-0.8614469170570374,8.351249694824219,0.7800880670547485
1744304521.139,-0.6269419193267822,8.9590482711792,0.4546525478363037
1744304521.139,-1.1533817052841187,9.916211128234863,0.9906639456748962
1744304521.139,-1.7133221626281738,10.725013732910156,1.1294525861740112
1744304521.139,-2.1536173820495605,10.792015075683594,0.8231604099273682
1744304521.213,-1.9908995628356934,10.212931632995605,0.6173703074455261
1744304521.213,-1.8664683103561401,9.724778175354004,1.019378900527954
1744304521.213,-1.8999689817428589,9.078693389892578,1.268241286277771
1744304521.213,-2.1249024868011475,8.667113304138184,1.1725249290466309
1744304521.213,-2.1249024868011475,8.518753051757812,1.5123178958892822
1744304521.213,-2.0674726963043213,8.781972885131836,1.1198810338974
1744304521.213,-1.8042527437210083,9.059550285339355,0.679585874080658
1744304521.213,-1.4357448816299438,8.815473556518555,0.7609447836875916
1744304521.288,-1.2873845100402832,7.9013824462890625,1.0145930051803589
1744304521.288,-0.9810923337936401,7.303155422210693,1.7611804008483887
1744304521.288,-0.9475916028022766,8.04017162322998,1.7372512817382812
1744304521.288,-0.9475916028022766,8.691041946411133,1.8186101913452148
1744304521.288,-1.0528795719146729,9.049978256225586,1.6989647150039673
1744304521.288,-1.4836030006408691,9.183980941772461,1.7611804008483887
1744304521.288,-1.8425391912460327,9.298840522766113,1.770751953125
1744304521.288,-2.3211207389831543,9.22705364227295,1.651106595993042
1744304521.362,-2.5173392295837402,8.968619346618652,1.7468229532241821
1744304521.362,-2.6226272583007812,9.021263122558594,1.7611804008483887
1744304521.362,-2.47426700592041,9.04519271850586,1.770751953125
1744304521.362,-2.5604116916656494,8.963833808898926,2.220618724822998
1744304521.362,-2.3498356342315674,8.906403541564941,2.325906753540039
1744304521.362,-2.038757801055908,8.647970199584961,1.9908995628356934
1744304521.362,-1.8042527437210083,8.724542617797852,1.9908995628356934
1744304521.362,-1.6750357151031494,8.896832466125488,1.9382555484771729
1744304521.436,-1.5793193578720093,9.01169204711914,1.7851094007492065
1744304521.436,-1.6702498197555542,9.01169204711914,1.8281817436218262
1744304521.436,-1.8521108627319336,8.48046588897705,2.254119396209717
1744304521.436,-1.9861136674880981,8.475680351257324,2.086615800857544
1744304521.436,-2.1201164722442627,8.475680351257324,1.904754877090454
1744304521.436,-2.1871180534362793,8.494823455810547,1.8616825342178345
1744304521.436,-2.2110471725463867,8.801115989685059,1.847325086593628
1744304521.436,-2.010042905807495,8.595325469970703,2.043543577194214
1744304521.51,-1.9143264293670654,9.351485252380371,1.1629533767700195
1744304521.51,-1.809038519859314,9.174409866333008,1.464459776878357
1744304521.51,-1.904754877090454,9.332341194152832,1.8903974294662476
1744304521.51,-2.0483293533325195,9.55727481842041,1.9908995628356934
1744304521.51,-1.8568966388702393,9.174409866333008,2.4551236629486084
1744304521.51,-1.9095406532287598,9.361056327819824,1.4501023292541504
1744304521.51,-1.9717562198638916,9.600347518920898,2.220618724822998
1744304521.51,-1.995685338973999,9.231839179992676,2.373764753341675
1744304521.584,-2.0339717864990234,8.94947624206543,1.9382555484771729
1744304521.584,-2.278048515319824,9.064335823059082,1.770751953125
1744304521.584,-2.536482572555542,9.006906509399414,1.689393162727356
1744304521.584,-2.459909439086914,8.691041946411133,1.5458186864852905
1744304521.584,-2.263690948486328,9.212696075439453,1.622391700744629
1744304521.584,-2.5269110202789307,11.42374324798584,1.8664683103561401
1744304521.584,-2.4072654247283936,13.553431510925293,2.431194543838501
1744304521.584,-1.5027462244033813,13.974583625793457,3.330928087234497
1744304521.659,-0.8662327527999878,13.089207649230957,2.1201164722442627
1744304521.659,-0.9667348861694336,12.845130920410156,1.2347406148910522
1744304521.659,-1.3160994052886963,13.09877872467041,1.6558923721313477
1744304521.659,-1.5697476863861084,13.443357467651367,1.1007376909255981
1744304521.659,-1.4692455530166626,13.342855453491211,0.11007377505302429
1744304521.659,-1.416601538658142,11.84968090057373,0.9619490504264832
1744304521.659,-0.8805902004241943,11.375885009765625,1.5075321197509766
1744304521.659,-0.3541503846645355,10.519224166870117,0.7178724408149719
1744304521.733,0.08614469319581985,9.490273475646973,-0.382865309715271
1744304521.733,0.3302213251590729,8.647970199584961,-0.8183745741844177
1744304521.733,0.2919347882270813,7.982741355895996,-0.32543548941612244
1744304521.733,0.2536482512950897,7.173938274383545,-0.12921704351902008
1744304521.733,0.06700142472982407,7.88223934173584,-0.39722275733947754
1744304521.733,0.014357448555529118,8.15981674194336,0.19621846079826355
1744304521.733,0.05742979422211647,8.566611289978027,0.16271774470806122
1744304521.733,-0.05742979422211647,9.509416580200195,-0.03350071236491203
1744304521.807,-0.06700142472982407,10.313433647155762,0.24407662451267242
1744304521.807,-0.3924369215965271,10.576653480529785,0.952377438545227
1744304521.807,-0.4737958014011383,9.916211128234863,1.651106595993042
1744304521.807,-0.6412993669509888,9.820494651794434,0.9284483194351196
1744304521.807,-0.8375178575515747,9.820494651794434,0.37807947397232056
1744304521.807,-1.0624512434005737,9.81092357635498,0.24407662451267242
1744304521.807,-0.9188767075538635,9.499845504760742,0.4642241597175598
1744304521.807,-0.6173703074455261,9.112194061279297,0.588655412197113
1744304521.881,-0.181861013174057,8.772400856018066,0.5503688454627991
1744304521.881,0.15793193876743317,8.399106979370117,0.29672059416770935
1744304521.881,0.30629223585128784,8.260318756103516,0.21536172926425934
1744304521.881,0.2823631465435028,8.557039260864258,0.22493335604667664
1744304521.881,0.24886244535446167,8.719757080078125,0.29672059416770935
1744304521.881,0.2536482512950897,8.322534561157227,0.2823631465435028
1744304521.881,-0.047858163714408875,8.906403541564941,0.22493335604667664
1744304521.881,0.0047858161851763725,9.22705364227295,0.8518753051757812
1744304521.956,0.06221561133861542,9.351485252380371,0.9763064980506897
1744304521.956,0.14836029708385468,9.7391357421875,0.9571632146835327
1744304521.956,-0.0047858161851763725,10.289505004882812,0.8375178575515747
1744304521.956,-0.07178724557161331,10.342148780822754,1.3783150911331177
1744304521.956,-0.3302213251590729,10.265575408935547,1.3687434196472168
1744304521.956,-0.36850783228874207,10.232074737548828,0.9428057670593262
1744304521.956,-0.39722275733947754,10.002355575561523,1.3256710767745972
1744304521.956,-0.521653950214386,9.916211128234863,1.359171748161316
1744304522.031,-0.679585874080658,9.777422904968262,1.4357448816299438
1744304522.031,-0.6604426503181458,9.772636413574219,1.622391700744629
1744304522.031,-0.5647262930870056,9.71520709991455,1.2778129577636719
1744304522.031,-0.3302213251590729,9.676919937133789,0.9667348861694336
1744304522.031,0.05264397710561752,9.71520709991455,1.2347406148910522
1744304522.031,0.047858163714408875,9.830066680908203,1.517103672027588
1744304522.031,0.07657305896282196,9.911425590515137,1.359171748161316
1744304522.031,-0.03828652948141098,9.940139770507812,1.4309589862823486
1744304522.105,-0.29672059416770935,9.55727481842041,1.3496001958847046
1744304522.105,-0.34936457872390747,9.10740852355957,1.3496001958847046
1744304522.105,-0.35893622040748596,9.03562068939209,1.4309589862823486
1744304522.105,-0.17707519233226776,9.169623374938965,1.201239824295044
1744304522.105,-0.11485958844423294,9.270126342773438,0.8758043646812439
1744304522.105,0.028714897111058235,9.332341194152832,1.043307900428772
1744304522.105,-0.14357449114322662,9.198338508605957,1.5266753435134888
1744304522.105,-0.2919347882270813,9.250982284545898,1.531461238861084
1744304522.179,-0.4642241597175598,9.284482955932617,1.1198810338974
1744304522.179,-0.7322298884391785,9.28926944732666,1.0050214529037476
1744304522.179,-0.8710185289382935,9.088264465332031,1.306527853012085
1744304522.179,-0.923662543296814,8.714971542358398,1.3783150911331177
1744304522.179,-1.0002355575561523,8.738900184631348,1.5027462244033813
1744304522.179,-1.1007376909255981,8.887260437011719,1.3974583148956299
1744304522.179,-1.110309362411499,9.246196746826172,0.7753022313117981
1744304522.179,-1.0959519147872925,9.169623374938965,0.6221560835838318
1744304522.253,-1.0145930051803589,8.997334480285645,1.110309362411499
1744304522.253,-0.8949476480484009,8.9590482711792,1.6271774768829346
1744304522.253,-0.6125844717025757,9.078693389892578,1.6080342531204224
1744304522.253,-0.3206496834754944,9.514202117919922,1.6941789388656616
1744304522.253,-0.2727915346622467,9.9832124710083,1.5266753435134888
1744304522.253,-0.363722026348114,10.117215156555176,1.3160994052886963
1744304522.253,-0.3110780417919159,9.609918594360352,1.3304568529129028
1744304522.253,-0.41636601090431213,9.451987266540527,1.4979604482650757
1744304522.328,-0.6269419193267822,9.56684684753418,1.5123178958892822
1744304522.328,-0.904519259929657,9.849209785461426,1.4022440910339355
1744304522.328,-0.8423036336898804,10.136358261108398,1.2060257196426392
1744304522.328,-0.8088029623031616,10.212931632995605,1.268241286277771
1744304522.328,-0.8279461860656738,10.404364585876465,1.4309589862823486
1744304522.328,-1.0145930051803589,10.480937004089355,1.4118157625198364
1744304522.328,-1.1916682720184326,10.169858932495117,1.4836030006408691
1744304522.328,-1.2778129577636719,9.729564666748047,1.584105134010315
1744304522.402,-1.4453164339065552,9.753493309020996,1.4836030006408691
1744304522.402,-1.7324655055999756,9.408914566040039,1.4118157625198364
1744304522.402,-2.0291860103607178,9.36584186553955,1.4501023292541504
1744304522.402,-1.7468229532241821,9.198338508605957,1.8138242959976196
1744304522.402,-1.416601538658142,9.164837837219238,1.9621846675872803
1744304522.402,-1.1533817052841187,9.27969741821289,1.7803236246109009
1744304522.402,-1.0385221242904663,9.509416580200195,1.6606782674789429
1744304522.402,-1.1725249290466309,9.538131713867188,1.7946810722351074
1744304522.476,-1.3400285243988037,9.270126342773438,1.718108057975769
1744304522.476,-1.4213874340057373,8.992548942565918,1.49317467212677
1744304522.476,-1.7228938341140747,8.810688018798828,1.7228938341140747
1744304522.476,-1.8233959674835205,8.734114646911621,1.957398772239685
1744304522.476,-1.7516087293624878,8.901618003845215,1.8712540864944458
1744304522.476,-1.6176059246063232,9.140909194946289,1.6989647150039673
1744304522.476,-1.239526391029358,9.437629699707031,1.5888910293579102
1744304522.476,-0.7561589479446411,9.475915908813477,1.718108057975769
1744304522.55,-0.4307234585285187,9.346698760986328,1.7946810722351074
1744304522.55,-0.47858160734176636,9.437629699707031,1.5984625816345215
1744304522.55,-0.6891575455665588,9.576417922973633,1.4596738815307617
1744304522.55,-0.746587336063385,9.786993980407715,1.3496001958847046
1744304522.55,-0.7800880670547485,9.9832124710083,1.3735291957855225
1744304522.55,-0.7513731122016907,10.021498680114746,1.49317467212677
1744304522.55,-0.8805902004241943,10.007142066955566,1.3208853006362915
1744304522.55,-0.9619490504264832,9.8444242477417,1.3448143005371094
1744304522.625,-1.2251689434051514,9.700849533081055,1.2538838386535645
1744304522.625,-1.4022440910339355,9.552489280700684,1.0911661386489868
1744304522.625,-1.387886643409729,9.451987266540527,1.2586696147918701
1744304522.625,-1.4118157625198364,9.480701446533203,1.3974583148956299
1744304522.625,-1.3017419576644897,9.552489280700684,1.4022440910339355
1744304522.625,-1.2347406148910522,9.849209785461426,1.770751953125
1744304522.625,-1.1294525861740112,10.040642738342285,1.6846072673797607
1744304522.625,-1.139024257659912,10.107644081115723,1.4979604482650757
1744304522.699,-1.1820966005325317,10.002355575561523,1.6750357151031494
1744304522.699,-1.3160994052886963,9.724778175354004,1.7946810722351074
1744304522.699,-1.3974583148956299,9.389771461486816,1.3208853006362915
1744304522.699,-1.6750357151031494,9.361056327819824,1.0863802433013916
1744304522.699,-1.7516087293624878,9.614705085754395,2.0339717864990234
1744304522.699,-1.6558923721313477,9.614705085754395,2.043543577194214
1744304522.699,-1.4836030006408691,9.609918594360352,1.3448143005371094
1744304522.699,-1.4453164339065552,9.518988609313965,1.2443121671676636
1744304522.773,-1.4979604482650757,9.423272132873535,1.560176134109497
1744304522.773,-1.5506044626235962,9.27969741821289,1.6989647150039673
1744304522.773,-1.5936768054962158,9.356270790100098,1.679821491241455
1744304522.773,-1.4740313291549683,9.428057670593262,1.6367491483688354
1744304522.773,-1.531461238861084,9.456772804260254,1.5027462244033813
1744304522.773,-1.531461238861084,9.351485252380371,1.3735291957855225
1744304522.773,-1.4979604482650757,9.250982284545898,1.6319633722305298
1744304522.773,-1.4979604482650757,9.27969741821289,1.6702498197555542
1744304522.847,-1.4740313291549683,9.351485252380371,1.5745335817337036
1744304522.847,-1.4213874340057373,9.442415237426758,1.4596738815307617
1744304522.847,-1.4118157625198364,9.499845504760742,1.4836030006408691
1744304522.847,-1.387886643409729,9.523774147033691,1.6367491483688354
1744304522.847,-1.335242748260498,9.562060356140137,1.5649619102478027
1744304522.847,-1.4213874340057373,9.442415237426758,1.6032484769821167
1744304522.847,-1.4070299863815308,9.160052299499512,1.6941789388656616
1744304522.847,-1.426173210144043,9.150480270385742,1.8999689817428589
1744304522.921,-1.3687434196472168,9.408914566040039,1.9095406532287598
1744304522.921,-1.4883887767791748,9.562060356140137,2.0626866817474365
1744304522.921,-1.2778129577636719,9.528559684753418,2.1201164722442627
1744304522.921,-1.043307900428772,9.576417922973633,1.7563945055007935
1744304522.921,-1.1629533767700195,9.724778175354004,1.847325086593628
1744304522.921,-1.229954719543457,9.509416580200195,1.8903974294662476
1744304522.921,-1.2538838386535645,9.428057670593262,1.7898952960968018
1744304522.921,-1.3208853006362915,9.260554313659668,1.6941789388656616
1744304522.996,-1.148595929145813,9.083478927612305,1.8425391912460327
1744304522.996,-1.239526391029358,9.27969741821289,1.809038519859314
1744304522.996,-1.2060257196426392,9.322770118713379,1.5506044626235962
1744304522.996,-1.110309362411499,9.437629699707031,1.4596738815307617
1744304522.996,-1.0959519147872925,9.806137084960938,1.3496001958847046
1744304522.996,-1.1629533767700195,9.849209785461426,1.4788172245025635
1744304522.996,-0.9188767075538635,9.82528018951416,1.5362470149993896
1744304522.996,-0.8853759765625,9.868352890014648,1.5745335817337036
1744304523.07,-1.1055235862731934,9.89706802368164,1.4788172245025635
1744304523.07,-1.1581674814224243,9.758278846740723,1.4501023292541504
1744304523.07,-1.2443121671676636,9.514202117919922,1.4309589862823486
1744304523.07,-1.0098072290420532,9.418486595153809,1.3400285243988037
1744304523.07,-0.9332341551780701,9.518988609313965,1.3735291957855225
1744304523.07,-0.6604426503181458,9.581204414367676,1.359171748161316
1744304523.07,-0.6221560835838318,9.7391357421875,1.296956181526184
1744304523.07,-0.6269419193267822,9.786993980407715,1.201239824295044
1744304523.144,-0.8901618123054504,9.74870777130127,1.4022440910339355
1744304523.144,-0.9715206623077393,9.428057670593262,1.3543859720230103
1744304523.144,-1.1342384815216064,9.499845504760742,1.229954719543457
1744304523.144,-1.2155972719192505,9.538131713867188,1.3448143005371094
1744304523.144,-1.1055235862731934,9.576417922973633,1.651106595993042
1744304523.144,-0.952377438545227,9.619490623474121,1.718108057975769
1744304523.144,-1.0624512434005737,9.681706428527832,1.306527853012085
1744304523.144,-1.0528795719146729,9.806137084960938,1.2825987339019775
1744304523.218,-0.9093050956726074,9.705635070800781,1.5649619102478027
1744304523.218,-0.6030128598213196,9.55727481842041,1.6319633722305298
1744304523.218,-0.4929390549659729,9.475915908813477,1.2108114957809448
1744304523.218,-0.6173703074455261,9.4950590133667,1.5936768054962158
1744304523.218,-0.7753022313117981,9.581204414367676,2.1249024868011475
1744304523.218,-0.8135887384414673,9.624276161193848,1.7659661769866943
1744304523.218,-0.8758043646812439,9.624276161193848,1.3208853006362915
1744304523.218,-0.8183745741844177,9.605133056640625,1.416601538658142
1744304523.293,-0.8088029623031616,9.691277503967285,1.464459776878357
1744304523.293,-0.7705163955688477,9.777422904968262,1.6271774768829346
1744304523.293,-0.8135887384414673,9.71520709991455,1.8042527437210083
1744304523.293,-0.8088029623031616,9.74870777130127,1.5793193578720093
1744304523.293,-0.9093050956726074,9.710420608520508,1.5793193578720093
1744304523.293,-0.8662327527999878,9.595561027526855,1.4883887767791748
1744304523.293,-0.7848738431930542,9.351485252380371,1.651106595993042
1744304523.293,-0.8901618123054504,9.241411209106445,1.718108057975769
1744304523.367,-1.0002355575561523,9.260554313659668,2.0004711151123047
1744304523.367,-0.9571632146835327,9.356270790100098,2.014828681945801
1744304523.367,-0.952377438545227,9.480701446533203,1.8951832056045532
1744304523.367,-0.8997334241867065,9.56684684753418,1.837753415107727
1744304523.367,-0.8327320218086243,9.657776832580566,1.8856115341186523
1744304523.367,-0.6939433217048645,9.600347518920898,1.6702498197555542
1744304523.367,-0.6412993669509888,9.633848190307617,1.7037506103515625
1744304523.367,-0.5503688454627991,9.638633728027344,1.7659661769866943
1744304523.441,-0.4929390549659729,9.595561027526855,1.904754877090454
1744304523.441,-0.4450809061527252,9.284482955932617,1.8856115341186523
1744304523.441,-0.3350071310997009,9.408914566040039,1.679821491241455
1744304523.441,-0.40679436922073364,9.380199432373047,1.8233959674835205
1744304523.441,-0.4737958014011383,9.413700103759766,1.9191123247146606
1744304523.441,-0.6412993669509888,9.389771461486816,1.8425391912460327
1744304523.441,-0.5934411883354187,9.308412551879883,1.9143264293670654
1744304523.441,-0.6030128598213196,9.198338508605957,2.038757801055908
1744304523.515,-0.679585874080658,9.198338508605957,2.3833365440368652
1744304523.515,-0.5264397859573364,9.112194061279297,2.368978977203369
1744304523.515,-0.569512128829956,9.169623374938965,2.325906753540039
1744304523.515,-0.5312256217002869,9.145694732666016,2.354621648788452
1744304523.515,-0.569512128829956,9.179195404052734,2.292405843734741
1744304523.515,-0.5264397859573364,9.423272132873535,2.354621648788452
1744304523.515,-0.4546525478363037,9.404129028320312,2.3450498580932617
1744304523.515,-0.3110780417919159,9.049978256225586,2.249333620071411
1744304523.59,-0.19621846079826355,8.94947624206543,2.268476963043213
1744304523.59,-0.2536482512950897,8.987762451171875,2.3498356342315674
1744304523.59,-0.2536482512950897,9.36584186553955,2.263690948486328
1744304523.59,-0.28714898228645325,9.882710456848145,2.388122320175171
1744304523.59,-0.39722275733947754,10.208146095275879,1.9143264293670654
1744304523.59,-0.2632198929786682,10.184216499328613,1.876039981842041
1744304523.59,-0.07657305896282196,9.853995323181152,2.10097336769104
1744304523.59,-0.009571632370352745,9.609918594360352,1.8281817436218262
1744304523.665,0.11964540183544159,9.585989952087402,1.7611804008483887
1744304523.665,0.11007377505302429,9.533346176147461,1.9238981008529663
1744304523.665,0.047858163714408875,9.585989952087402,2.1392598152160645
1744304523.665,-0.5503688454627991,9.868352890014648,1.9526129961013794
1744304523.665,-1.1007376909255981,10.246432304382324,1.876039981842041
1744304523.665,-1.5123178958892822,10.332576751708984,1.4453164339065552
1744304523.665,-1.5027462244033813,10.404364585876465,0.8470894694328308
1744304523.665,-1.0145930051803589,10.040642738342285,1.3256710767745972
1744304523.739,-0.6652284264564514,9.609918594360352,1.296956181526184
1744304523.739,-0.3541503846645355,9.39934253692627,1.148595929145813
1744304523.739,-0.6173703074455261,9.294054985046387,1.8951832056045532
1744304523.739,-0.7322298884391785,9.361056327819824,2.325906753540039
1744304523.739,-0.8279461860656738,9.332341194152832,1.5506044626235962
1744304523.739,-0.44029510021209717,9.404129028320312,0.9380199909210205
1744304523.739,-0.03350071236491203,9.270126342773438,1.239526391029358
1744304523.739,0.13878867030143738,9.370628356933594,1.5410327911376953
1744304523.813,0.2919347882270813,9.451987266540527,1.8999689817428589
1744304523.813,0.13400284945964813,9.710420608520508,2.1679747104644775
1744304523.813,0.009571632370352745,9.873138427734375,2.0914015769958496
1744304523.813,-0.11007377505302429,9.940139770507812,2.163188934326172
1744304523.813,-0.06221561133861542,9.55727481842041,1.9191123247146606
1744304523.813,0.023929081857204437,9.37541389465332,1.7803236246109009
1744304523.813,0.03828652948141098,9.102622032165527,1.7372512817382812
1744304523.813,0.05264397710561752,9.026049613952637,1.6319633722305298
1744304523.887,-0.05742979422211647,9.03562068939209,1.7755378484725952
1744304523.887,-0.29672059416770935,9.28926944732666,2.024400234222412
1744304523.887,-0.6269419193267822,9.523774147033691,1.9478272199630737
1744304523.887,-0.7418015003204346,9.724778175354004,1.7659661769866943
1744304523.887,-0.6030128598213196,9.504631042480469,1.7659661769866943
1744304523.887,-0.36850783228874207,9.485487937927246,1.6176059246063232
1744304523.887,-0.15314611792564392,9.475915908813477,1.4883887767791748
1744304523.887,0.06221561133861542,9.571632385253906,1.809038519859314
1744304523.961,0.29672059416770935,9.56684684753418,1.9765421152114868
1744304523.961,0.34936457872390747,9.380199432373047,1.9430413246154785
1744304523.961,0.339792937040329,9.499845504760742,2.0291860103607178
1744304523.961,0.14836029708385468,9.576417922973633,2.1392598152160645
1744304523.961,-0.028714897111058235,9.514202117919922,2.024400234222412
1744304523.961,-0.1914326548576355,9.346698760986328,1.9861136674880981
1744304523.961,-0.2919347882270813,9.250982284545898,2.234976053237915
1744304523.961,-0.37807947397232056,9.28926944732666,2.1249024868011475
1744304524.036,-0.2536482512950897,9.538131713867188,1.8425391912460327
1744304524.036,-0.1914326548576355,9.533346176147461,1.8281817436218262
1744304524.036,-0.181861013174057,9.581204414367676,1.7946810722351074
1744304524.036,-0.2105759084224701,9.676919937133789,1.8329676389694214
1744304524.036,-0.1722893863916397,9.853995323181152,1.876039981842041
1744304524.036,-0.1005021408200264,9.81092357635498,1.770751953125
1744304524.036,-0.07178724557161331,9.724778175354004,1.8042527437210083
1744304524.036,-0.08614469319581985,9.667348861694336,1.770751953125
1744304524.11,-0.14836029708385468,9.413700103759766,1.8042527437210083
1744304524.11,-0.06700142472982407,9.351485252380371,1.8664683103561401
1744304524.11,-0.08614469319581985,9.370628356933594,1.8568966388702393
1744304524.11,0.0047858161851763725,9.480701446533203,1.9095406532287598
1744304524.11,0.12443122267723083,9.552489280700684,1.957398772239685
1744304524.11,0.17707519233226776,9.485487937927246,1.966970443725586
1744304524.11,0.10528795421123505,9.327555656433105,1.9382555484771729
1744304524.11,-0.22493335604667664,9.026049613952637,1.2730270624160767
1744304524.184,-0.5551546812057495,8.872902870178223,0.9619490504264832
1744304524.184,-0.5790837407112122,8.944690704345703,0.8423036336898804
1744304524.184,-0.4546525478363037,8.997334480285645,0.8231604099273682
1744304524.184,-0.8375178575515747,9.332341194152832,1.043307900428772
1744304524.184,-0.7992312908172607,9.657776832580566,1.3208853006362915
1744304524.184,-0.5982270240783691,9.863567352294922,1.4692455530166626
1744304524.184,-0.339792937040329,10.083714485168457,1.6989647150039673
1744304524.184,-0.23450499773025513,10.074143409729004,1.148595929145813
1744304524.258,-0.28714898228645325,9.959283828735352,0.9619490504264832
1744304524.258,-0.4450809061527252,9.925783157348633,1.5458186864852905
1744304524.258,-0.7609447836875916,10.040642738342285,2.134474039077759
1744304524.258,-1.081594467163086,10.059785842895508,1.8233959674835205
1744304524.258,-1.081594467163086,9.92099666595459,0.7226582169532776
1744304524.258,-0.8758043646812439,9.858781814575195,0.47858160734176636
1744304524.258,-0.6365135312080383,9.791779518127441,1.1916682720184326
1744304524.258,-0.41636601090431213,9.753493309020996,1.3543859720230103
1744304524.333,-0.26800569891929626,9.581204414367676,1.4501023292541504
1744304524.333,-0.37807947397232056,9.490273475646973,1.5697476863861084
1744304524.333,-0.4450809061527252,9.485487937927246,1.3496001958847046
1744304524.333,-0.5551546812057495,9.667348861694336,1.0050214529037476
1744304524.333,-0.6269419193267822,9.92099666595459,0.7418015003204346
1744304524.333,-0.8470894694328308,9.743921279907227,0.9475916028022766
1744304524.333,-0.9619490504264832,9.629061698913574,0.9380199909210205
1744304524.333,-0.952377438545227,9.600347518920898,1.0098072290420532
1744304524.407,-0.9475916028022766,9.743921279907227,1.2538838386535645
1744304524.407,-1.0672370195388794,9.767850875854492,1.239526391029358
1744304524.407,-1.1007376909255981,9.882710456848145,1.3017419576644897
1744304524.407,-1.0863802433013916,10.040642738342285,1.139024257659912
1744304524.407,-0.923662543296814,10.035856246948242,0.9619490504264832
1744304524.407,-1.177310824394226,10.19857406616211,0.3732936680316925
1744304524.407,-1.1533817052841187,9.849209785461426,0.9093050956726074
1744304524.407,-1.201239824295044,10.232074737548828,1.0911661386489868
1744304524.481,-1.072022795677185,10.059785842895508,1.1342384815216064
1744304524.481,-1.072022795677185,9.66256332397461,1.0385221242904663
1744304524.481,-0.5742979645729065,9.475915908813477,1.560176134109497
1744304524.481,-0.4642241597175598,9.140909194946289,1.679821491241455
1744304524.481,-0.48815324902534485,8.34167766571045,2.3163349628448486
1744304524.481,-1.6367491483688354,11.270597457885742,1.9238981008529663
1744304524.481,-0.708300769329071,7.939669132232666,2.7997024059295654
1744304524.481,-0.8614469170570374,9.088264465332031,2.2589051723480225
1744304524.555,-1.081594467163086,9.188767433166504,1.9621846675872803
1744304524.555,-1.3304568529129028,9.542917251586914,1.3400285243988037
1744304524.555,-1.4405306577682495,10.437865257263184,1.0959519147872925
1744304524.555,-1.2825987339019775,10.25121784210205,1.4836030006408691
1744304524.555,-1.019378900527954,9.475915908813477,1.6032484769821167
1744304524.555,-0.8566610813140869,9.030835151672363,1.928683876991272
1744304524.555,-0.9380199909210205,9.198338508605957,1.9095406532287598
1744304524.555,-1.0002355575561523,9.562060356140137,1.7133221626281738
1744304524.629,-0.9140908718109131,9.475915908813477,1.5793193578720093
1744304524.629,-0.5503688454627991,9.356270790100098,1.770751953125
1744304524.629,-0.05742979422211647,8.796330451965332,2.2732627391815186
1744304524.629,-0.26800569891929626,8.442179679870605,2.6609137058258057
1744304524.629,-0.7992312908172607,8.853759765625,2.536482572555542
1744304524.629,-1.1007376909255981,9.451987266540527,2.522125244140625
1744304524.629,-1.1868823766708374,9.710420608520508,2.5699832439422607
1744304524.629,-1.1581674814224243,9.442415237426758,2.703986167907715
1744304524.704,-1.0145930051803589,9.0978364944458,2.584340810775757
1744304524.704,-0.8327320218086243,9.303627014160156,2.550840139389038
1744304524.704,-0.6748000979423523,9.743921279907227,2.459909439086914
1744304524.704,-0.6556568145751953,10.131572723388672,2.0818300247192383
1744304524.704,-0.8566610813140869,10.098072052001953,1.3160994052886963
1744304524.704,-0.9093050956726074,9.940139770507812,1.8329676389694214
1744304524.704,-1.1246668100357056,9.64341926574707,2.2110471725463867
1744304524.704,-0.9619490504264832,9.183980941772461,2.388122320175171
1744304524.778,-0.8710185289382935,8.896832466125488,2.206261157989502
1744304524.778,-1.1246668100357056,8.868117332458496,2.598698139190674
1744304524.778,-1.306527853012085,9.116979598999023,2.641770601272583
1744304524.778,-1.4836030006408691,9.317984580993652,1.9813278913497925
1744304524.778,-1.517103672027588,9.31319808959961,1.6176059246063232
1744304524.778,-1.3783150911331177,9.198338508605957,1.5649619102478027
1744304524.778,-1.2155972719192505,9.212696075439453,1.5697476863861084
1744304524.778,-1.1820966005325317,9.274911880493164,1.8712540864944458
1744304524.852,-1.019378900527954,9.576417922973633,2.014828681945801
1744304524.852,-1.072022795677185,9.600347518920898,2.10097336769104
1744304524.852,-1.1438100337982178,9.590775489807129,2.1249024868011475
1744304524.852,-1.1725249290466309,9.710420608520508,2.3450498580932617
1744304524.852,-1.2586696147918701,9.772636413574219,2.416837215423584
1744304524.852,-1.2203831672668457,9.74870777130127,2.28283429145813
1744304524.852,-1.1294525861740112,9.978426933288574,1.8856115341186523
1744304524.852,-1.3400285243988037,10.07892894744873,1.718108057975769
1744304524.926,-1.6032484769821167,10.007142066955566,1.306527853012085
1744304524.926,-1.6271774768829346,9.987998008728027,1.6176059246063232
1744304524.926,-1.531461238861084,9.830066680908203,1.6415349245071411
1744304524.926,-1.2921704053878784,9.648205757141113,1.837753415107727
1744304524.926,-0.9715206623077393,9.432844161987305,2.1105449199676514
1744304524.926,-1.139024257659912,9.361056327819824,2.158403158187866
1744304524.926,-1.1246668100357056,9.174409866333008,1.8712540864944458
1744304524.926,-1.1533817052841187,9.083478927612305,1.7468229532241821
1744304525.001,-1.1964540481567383,8.94947624206543,1.7563945055007935
1744304525.001,-1.2634555101394653,8.887260437011719,2.024400234222412
1744304525.001,-1.177310824394226,8.853759765625,2.1201164722442627
1744304525.001,-1.0576653480529785,9.030835151672363,1.9717562198638916
1744304525.001,-1.0145930051803589,9.183980941772461,2.134474039077759
1744304525.001,-0.8997334241867065,9.265339851379395,2.0770442485809326
1744304525.001,-0.8853759765625,9.370628356933594,1.9095406532287598
1744304525.001,-0.9571632146835327,9.246196746826172,2.134474039077759
1744304525.075,-0.923662543296814,9.03562068939209,2.3833365440368652
1744304525.075,-0.9619490504264832,9.01169204711914,2.3929080963134766
1744304525.075,-0.8614469170570374,9.250982284545898,2.1966896057128906
1744304525.075,-0.8423036336898804,9.4950590133667,1.6080342531204224
1744304525.075,-0.8997334241867065,9.767850875854492,1.454888105392456
1744304525.075,-1.019378900527954,9.806137084960938,1.5936768054962158
1744304525.075,-0.8375178575515747,9.901853561401367,1.9765421152114868
1744304525.075,-0.7705163955688477,9.724778175354004,1.9526129961013794
1744304525.15,-0.7561589479446411,9.466344833374023,1.8425391912460327
1744304525.15,-0.5455830693244934,9.126551628112793,1.8138242959976196
1744304525.15,-0.38765111565589905,8.643183708190918,2.038757801055908
1744304525.15,-0.38765111565589905,8.442179679870605,2.2732627391815186
1744304525.15,-0.5455830693244934,9.102622032165527,2.3211207389831543
1744304525.15,-0.7130866050720215,10.136358261108398,1.9478272199630737
1744304525.15,-1.0624512434005737,10.581439971923828,1.4501023292541504
1744304525.15,-1.239526391029358,10.189002990722656,1.742037057876587
1744304525.224,-1.3543859720230103,9.480701446533203,2.129688262939453
1744304525.224,-1.4453164339065552,9.150480270385742,2.191903829574585
1744304525.224,-1.268241286277771,9.088264465332031,1.9382555484771729
1744304525.224,-1.5649619102478027,9.030835151672363,1.4453164339065552
1744304525.224,-1.464459776878357,9.198338508605957,1.2921704053878784
1744304525.224,-1.454888105392456,9.552489280700684,1.6032484769821167
1744304525.224,-1.2538838386535645,9.37541389465332,1.718108057975769
1744304525.224,-1.2108114957809448,9.31319808959961,1.3831008672714233
1744304525.298,-1.3783150911331177,9.47113037109375,1.3687434196472168
1744304525.298,-1.3974583148956299,9.868352890014648,1.799466848373413
1744304525.298,-1.5936768054962158,10.069356918334961,1.5888910293579102
1744304525.298,-1.7803236246109009,9.858781814575195,1.306527853012085
1744304525.298,-1.8042527437210083,9.93056869506836,1.1820966005325317
1744304525.298,-1.7372512817382812,10.002355575561523,1.2921704053878784
1744304525.298,-1.5984625816345215,10.150715827941895,1.1964540481567383
1744304525.298,-1.387886643409729,10.16507339477539,1.454888105392456
1744304525.373,-1.1677391529083252,10.059785842895508,1.239526391029358
1744304525.373,-0.9858781099319458,9.820494651794434,1.2538838386535645
1744304525.373,-0.8949476480484009,9.633848190307617,1.239526391029358
1744304525.373,-1.0528795719146729,9.595561027526855,1.0145930051803589
1744304525.373,-1.1725249290466309,9.528559684753418,1.0145930051803589
1744304525.373,-1.3017419576644897,9.624276161193848,1.1150951385498047
1744304525.373,-1.4453164339065552,9.696063995361328,1.335242748260498
1744304525.373,-1.4692455530166626,9.691277503967285,1.8233959674835205
1744304525.447,-1.4357448816299438,9.538131713867188,1.5027462244033813
1744304525.447,-1.5936768054962158,9.585989952087402,1.1964540481567383
1744304525.447,-1.4836030006408691,9.724778175354004,0.9188767075538635
1744304525.447,-1.3735291957855225,9.806137084960938,0.8327320218086243
1744304525.447,-1.239526391029358,9.815709114074707,1.072022795677185
1744304525.447,-1.1820966005325317,9.743921279907227,1.0385221242904663
1744304525.447,-1.0672370195388794,9.777422904968262,1.2825987339019775
1744304525.447,-1.1629533767700195,9.839637756347656,1.0385221242904663
1744304525.521,-1.2108114957809448,9.801351547241211,0.923662543296814
1744304525.521,-1.2251689434051514,9.777422904968262,0.8949476480484009
1744304525.521,-1.306527853012085,9.609918594360352,0.9284483194351196
1744304525.521,-1.464459776878357,9.571632385253906,1.2060257196426392
1744304525.521,-1.4883887767791748,9.475915908813477,1.2347406148910522
1744304525.521,-1.454888105392456,9.46155834197998,0.9715206623077393
1744304525.521,-1.2443121671676636,9.528559684753418,0.8805902004241943
1744304525.521,-0.9332341551780701,9.562060356140137,0.8423036336898804
1744304525.595,-0.746587336063385,9.514202117919922,0.7705163955688477
1744304525.595,-0.5742979645729065,9.423272132873535,0.7896596789360046
1744304525.595,-0.5072965025901794,9.222268104553223,0.7609447836875916
1744304525.595,-0.5455830693244934,9.188767433166504,1.4070299863815308
1744304525.595,-0.8518753051757812,9.069121360778809,2.4120514392852783
1744304525.595,-1.2347406148910522,8.858545303344727,2.0961875915527344
1744304525.595,-1.3926725387573242,9.126551628112793,1.531461238861084
1744304525.595,-1.4022440910339355,9.514202117919922,1.5793193578720093
1744304525.669,-1.3208853006362915,9.74870777130127,1.2490980625152588
1744304525.669,-1.239526391029358,9.93056869506836,1.201239824295044
1744304525.669,-1.229954719543457,9.901853561401367,1.387886643409729
1744304525.669,-1.1342384815216064,9.877924919128418,1.3926725387573242
1744304525.669,-0.9906639456748962,9.858781814575195,1.1677391529083252
1744304525.669,-0.9093050956726074,9.7391357421875,1.5410327911376953
1744304525.669,-0.9188767075538635,9.562060356140137,1.9430413246154785
1744304525.669,-1.0002355575561523,9.466344833374023,2.0004711151123047
1744304525.744,-1.1533817052841187,9.389771461486816,1.9238981008529663
1744304525.744,-1.296956181526184,9.126551628112793,1.5266753435134888
1744304525.744,-1.177310824394226,8.844188690185547,1.0959519147872925
1744304525.744,-1.1007376909255981,8.887260437011719,1.7085363864898682
1744304525.744,-0.8279461860656738,8.92554759979248,1.9717562198638916
1744304525.744,-0.6556568145751953,9.160052299499512,2.1966896057128906
1744304525.744,-0.8231604099273682,9.514202117919922,2.3498356342315674
1744304525.744,-0.9954497814178467,9.71520709991455,2.311549186706543
1744304525.818,-1.0480937957763672,9.772636413574219,1.847325086593628
1744304525.818,-0.9188767075538635,9.763065338134766,1.9478272199630737
1744304525.818,-0.8662327527999878,9.638633728027344,2.416837215423584
1744304525.818,-0.8470894694328308,9.456772804260254,2.416837215423584
1744304525.818,-0.8997334241867065,9.38498592376709,2.2254045009613037
1744304525.818,-0.9667348861694336,9.346698760986328,2.3641932010650635
1744304525.818,-0.8997334241867065,9.442415237426758,2.5125534534454346
1744304525.818,-0.8566610813140869,9.595561027526855,2.278048515319824
1744304525.892,-0.8710185289382935,9.676919937133789,2.3354783058166504
1744304525.892,-0.9140908718109131,9.590775489807129,2.3211207389831543
1744304525.892,-0.9715206623077393,9.437629699707031,2.311549186706543
1744304525.892,-0.9332341551780701,9.380199432373047,2.4838385581970215
1744304525.892,-0.8901618123054504,9.36584186553955,2.4503378868103027
1744304525.892,-0.8518753051757812,9.394556999206543,2.2732627391815186
1744304525.892,-0.8327320218086243,9.514202117919922,2.3163349628448486
1744304525.892,-1.0241646766662598,9.456772804260254,2.340264081954956
1744304525.966,-1.0576653480529785,9.538131713867188,2.4072654247283936
1744304525.966,-0.9428057670593262,9.590775489807129,2.3163349628448486
1744304525.966,-0.9715206623077393,9.509416580200195,2.368978977203369
1744304525.966,-1.1007376909255981,9.499845504760742,2.550840139389038
1744304525.966,-0.9763064980506897,9.380199432373047,2.368978977203369
1744304525.966,-1.0863802433013916,9.38498592376709,2.134474039077759
1744304525.966,-0.9571632146835327,9.423272132873535,2.5173392295837402
1744304525.966,-1.019378900527954,9.380199432373047,2.584340810775757
1744304526.041,-0.8710185289382935,9.22705364227295,2.641770601272583
1744304526.041,-0.9715206623077393,9.246196746826172,2.6800570487976074
1744304526.041,-0.9954497814178467,9.274911880493164,2.7422726154327393
1744304526.041,-0.904519259929657,9.164837837219238,2.7422726154327393
1744304526.041,-1.1198810338974,9.198338508605957,2.713557720184326
1744304526.041,-1.1198810338974,9.274911880493164,2.6561279296875
1744304526.041,-1.1725249290466309,9.404129028320312,2.5269110202789307
1744304526.041,-0.8279461860656738,9.437629699707031,2.479052782058716
1744304526.115,-0.7130866050720215,9.456772804260254,2.5699832439422607
1744304526.115,-0.7609447836875916,9.327555656433105,2.493410348892212
1744304526.115,-0.6077986359596252,9.327555656433105,2.2301902770996094
1744304526.115,-0.588655412197113,9.332341194152832,1.928683876991272
1744304526.115,-0.48815324902534485,9.413700103759766,2.177546262741089
1744304526.115,-0.765730619430542,9.413700103759766,2.129688262939453
1744304526.115,-0.952377438545227,9.36584186553955,1.904754877090454
1744304526.115,-0.8375178575515747,9.418486595153809,2.1966896057128906
1744304526.189,-0.7609447836875916,9.437629699707031,2.158403158187866
1744304526.189,-0.9093050956726074,9.13133716583252,2.1392598152160645
1744304526.189,-0.8710185289382935,8.930333137512207,2.4981961250305176
1744304526.189,-1.081594467163086,8.825044631958008,2.402479648590088
1744304526.189,-1.2203831672668457,8.734114646911621,2.3833365440368652
1744304526.189,-1.2347406148910522,8.590539932250977,2.7422726154327393
1744304526.189,-1.268241286277771,8.413464546203613,2.684842824935913
1744304526.189,-1.335242748260498,8.561824798583984,2.0674726963043213
1744304526.263,-1.3974583148956299,9.073907852172852,2.837989091873169
1744304526.263,-1.2443121671676636,9.485487937927246,2.584340810775757
1744304526.263,-1.1007376909255981,9.820494651794434,2.493410348892212
1744304526.263,-0.7226582169532776,9.92099666595459,2.4503378868103027
1744304526.263,-0.765730619430542,9.949711799621582,2.148831367492676
1744304526.263,-0.7944455146789551,9.758278846740723,2.761415958404541
1744304526.263,-0.8470894694328308,9.4950590133667,2.4551236629486084
1744304526.263,-0.9715206623077393,9.078693389892578,2.191903829574585
1744304526.337,-1.0959519147872925,8.810688018798828,2.3929080963134766
1744304526.337,-1.2203831672668457,8.657541275024414,2.6369848251342773
1744304526.337,-1.4309589862823486,8.604897499084473,3.015064239501953
1744304526.337,-1.3639576435089111,8.901618003845215,3.2352118492126465
1744304526.337,-1.464459776878357,9.169623374938965,2.9528486728668213
1744304526.337,-1.4070299863815308,9.499845504760742,3.043779134750366
1744304526.337,-1.2203831672668457,9.806137084960938,3.0102784633636475
1744304526.337,-1.1007376909255981,9.66256332397461,2.9767775535583496
1744304526.412,-1.0528795719146729,9.480701446533203,3.584576368331909
1744304526.412,-0.6843717098236084,10.131572723388672,1.7276796102523804
1744304526.412,-0.7418015003204346,10.227289199829102,2.086615800857544
1744304526.412,-0.7035149931907654,9.978426933288574,2.943276882171631
1744304526.412,-0.8279461860656738,9.66256332397461,2.7709875106811523
1744304526.412,-0.9954497814178467,9.265339851379395,2.4551236629486084
1744304526.412,-0.9763064980506897,9.241411209106445,2.0004711151123047
1744304526.412,-0.8566610813140869,9.241411209106445,1.49317467212677
1744304526.486,-0.8662327527999878,9.346698760986328,1.4070299863815308
1744304526.486,-1.1342384815216064,9.260554313659668,2.2732627391815186
1744304526.486,-0.9428057670593262,9.284482955932617,2.3785505294799805
1744304526.486,-0.8758043646812439,9.327555656433105,2.6321988105773926
1744304526.486,-0.9332341551780701,9.46155834197998,2.354621648788452
1744304526.486,-1.0576653480529785,9.179195404052734,2.7231295108795166
1744304526.486,-1.0098072290420532,8.753257751464844,2.7087719440460205
1744304526.486,-1.0624512434005737,8.432607650756836,1.9334697723388672
1744304526.56,-1.4453164339065552,8.590539932250977,1.8999689817428589
1744304526.56,-1.6846072673797607,9.346698760986328,2.3306925296783447
1744304526.56,-1.5362470149993896,9.729564666748047,2.057900905609131
1744304526.56,-1.0768086910247803,9.81092357635498,2.2158329486846924
1744304526.56,-0.7800880670547485,10.059785842895508,2.6034839153289795
1744304526.56,-0.6412993669509888,10.19857406616211,2.5269110202789307
1744304526.56,-0.6748000979423523,10.031070709228516,2.5412683486938477
1744304526.56,-0.904519259929657,9.619490623474121,2.6513421535491943
1744304526.634,-1.3448143005371094,9.260554313659668,2.684842824935913
1744304526.634,-1.6415349245071411,8.94947624206543,2.445552110671997
1744304526.634,-1.8329676389694214,9.016477584838867,2.1536173820495605
1744304526.634,-1.847325086593628,9.31319808959961,2.4551236629486084
1744304526.634,-1.6654640436172485,9.55727481842041,2.4694812297821045
1744304526.634,-1.2490980625152588,9.380199432373047,1.966970443725586
1744304526.634,-1.043307900428772,9.432844161987305,2.2014753818511963
1744304526.634,-1.0145930051803589,9.619490623474121,2.627413034439087
1744304526.709,-1.2155972719192505,9.523774147033691,2.593912363052368
1744304526.709,-1.3113136291503906,9.447200775146484,2.5316967964172363
1744304526.709,-1.2490980625152588,9.499845504760742,2.7374868392944336
1744304526.709,-1.0241646766662598,9.562060356140137,2.3833365440368652
1744304526.709,-0.7800880670547485,9.432844161987305,2.2254045009613037
1744304526.709,-0.5790837407112122,9.155266761779785,2.402479648590088
1744304526.709,-0.4737958014011383,9.021263122558594,2.2732627391815186
1744304526.709,-0.25843408703804016,9.246196746826172,2.297191858291626
1744304526.784,-0.03828652948141098,9.380199432373047,2.2876200675964355
1744304526.784,0.17707519233226776,9.499845504760742,1.904754877090454
1744304526.784,-0.04307234659790993,9.466344833374023,2.086615800857544
1744304526.784,-0.4115802049636841,9.466344833374023,2.072258472442627
1744304526.784,-0.7178724408149719,9.437629699707031,2.3019776344299316
1744304526.784,-0.8566610813140869,9.13133716583252,2.2397620677948
1744304526.784,-0.8518753051757812,8.968619346618652,2.47426700592041
1744304526.784,-0.6269419193267822,9.150480270385742,2.6369848251342773
1744304526.858,-0.44986671209335327,9.437629699707031,2.115330696105957
1744304526.858,-0.4259376525878906,9.600347518920898,2.038757801055908
1744304526.858,-0.4211518168449402,9.719992637634277,2.172760486602783
1744304526.858,-0.6269419193267822,9.700849533081055,2.072258472442627
1744304526.858,-0.9571632146835327,9.696063995361328,1.7516087293624878
1744304526.858,-1.1868823766708374,9.767850875854492,1.5888910293579102
1744304526.858,-1.464459776878357,9.906639099121094,1.517103672027588
1744304526.858,-1.689393162727356,10.021498680114746,1.679821491241455
1744304526.932,-1.809038519859314,10.026285171508789,1.6032484769821167
1744304526.932,-1.8042527437210083,9.9832124710083,1.6846072673797607
1744304526.932,-1.689393162727356,9.901853561401367,1.718108057975769
1744304526.932,-1.4883887767791748,9.743921279907227,1.5123178958892822
1744304526.932,-1.2825987339019775,9.796566009521484,1.5553902387619019
1744304526.932,-1.1868823766708374,9.624276161193848,1.718108057975769
1744304526.932,-1.0959519147872925,9.619490623474121,1.8712540864944458
1744304526.932,-0.9332341551780701,9.437629699707031,2.0674726963043213
1744304527.006,-0.8135887384414673,9.322770118713379,2.0004711151123047
1744304527.006,-0.7992312908172607,9.614705085754395,1.7276796102523804
1744304527.006,-0.8901618123054504,9.657776832580566,2.163188934326172
1744304527.006,-1.0002355575561523,9.64341926574707,2.2589051723480225
1744304527.006,-1.1055235862731934,9.538131713867188,2.3833365440368652
1744304527.006,-1.0145930051803589,9.418486595153809,2.28283429145813
1744304527.006,-0.952377438545227,9.22705364227295,2.3976938724517822
1744304527.006,-0.9571632146835327,9.030835151672363,2.3019776344299316
1744304527.081,-1.019378900527954,8.896832466125488,2.191903829574585
1744304527.081,-1.0528795719146729,8.944690704345703,2.254119396209717
1744304527.081,-1.1198810338974,8.944690704345703,2.2876200675964355
1744304527.081,-1.0289504528045654,9.236625671386719,2.2254045009613037
1744304527.081,-0.904519259929657,9.361056327819824,2.1823322772979736
1744304527.081,-0.7178724408149719,9.432844161987305,2.0961875915527344
1744304527.081,-0.746587336063385,9.380199432373047,2.1966896057128906
1744304527.081,-0.6317277550697327,9.906639099121094,1.9717562198638916
1744304527.155,-0.7035149931907654,9.648205757141113,2.0291860103607178
1744304527.155,-0.5599405169487,8.954261779785156,1.9143264293670654
1744304527.155,-0.6173703074455261,9.155266761779785,1.6989647150039673
1744304527.155,-0.5503688454627991,9.10740852355957,1.9813278913497925
1744304527.155,-0.5312256217002869,8.9590482711792,1.9238981008529663
1744304527.155,-0.5168681740760803,9.006906509399414,1.8568966388702393
1744304527.155,-0.5025107264518738,9.04519271850586,1.9908995628356934
1744304527.155,-0.5838695764541626,9.10740852355957,2.3641932010650635
1744304527.229,-0.727444052696228,9.47113037109375,2.3976938724517822
1744304527.229,-0.7992312908172607,9.581204414367676,2.4216229915618896
1744304527.229,-0.9715206623077393,9.600347518920898,2.7231295108795166
1744304527.229,-1.1438100337982178,9.55727481842041,2.4694812297821045
1744304527.229,-1.464459776878357,9.46155834197998,1.8616825342178345
1744304527.229,-1.3400285243988037,9.547703742980957,2.3641932010650635
1744304527.229,-1.1964540481567383,9.39934253692627,2.297191858291626
1744304527.229,-1.0576653480529785,9.231839179992676,2.086615800857544
1744304527.303,-0.8853759765625,9.490273475646973,2.0818300247192383
1744304527.303,-0.9188767075538635,9.56684684753418,2.3306925296783447
1744304527.303,-1.0959519147872925,9.547703742980957,2.627413034439087
1744304527.303,-1.0337363481521606,9.576417922973633,2.177546262741089
1744304527.303,-0.8949476480484009,9.389771461486816,2.057900905609131
1744304527.303,-0.7226582169532776,9.418486595153809,2.2732627391815186
1744304527.303,-0.6987291574478149,9.542917251586914,2.177546262741089
1744304527.303,-0.8758043646812439,9.696063995361328,2.172760486602783
1744304527.377,-1.0098072290420532,9.882710456848145,2.254119396209717
1744304527.377,-1.1964540481567383,9.89706802368164,2.263690948486328
1744304527.377,-1.2155972719192505,9.724778175354004,2.038757801055908
1744304527.377,-1.1725249290466309,9.504631042480469,2.234976053237915
1744304527.377,-1.1868823766708374,9.298840522766113,2.220618724822998
1744304527.377,-1.0145930051803589,8.825044631958008,2.177546262741089
1744304527.377,-0.9667348861694336,8.590539932250977,2.0914015769958496
1744304527.377,-1.043307900428772,8.734114646911621,1.6941789388656616
1744304527.452,-1.3208853006362915,9.523774147033691,1.6319633722305298
1744304527.452,-1.3496001958847046,10.701085090637207,1.8329676389694214
1744304527.452,-1.239526391029358,11.237096786499023,1.4118157625198364
1744304527.452,-1.1677391529083252,11.380670547485352,1.1150951385498047
1744304527.452,-1.229954719543457,11.026520729064941,2.2732627391815186
1744304527.452,-1.2203831672668457,9.81092357635498,2.8858470916748047
1744304527.452,-1.239526391029358,9.21748161315918,2.311549186706543
1744304527.452,-1.3448143005371094,8.729329109191895,2.292405843734741
1744304527.526,-1.651106595993042,8.590539932250977,2.134474039077759
1744304527.526,-1.8808257579803467,8.872902870178223,1.6463208198547363
1744304527.526,-1.9095406532287598,8.820259094238281,1.4883887767791748
1744304527.526,-1.8042527437210083,8.882474899291992,1.4692455530166626
1744304527.526,-1.416601538658142,8.633612632751465,1.5649619102478027
1744304527.526,-0.9571632146835327,8.561824798583984,1.718108057975769
1744304527.526,-0.7130866050720215,8.695828437805176,1.837753415107727
1744304527.526,-0.5742979645729065,8.662327766418457,1.876039981842041
1744304527.6,-0.727444052696228,8.743685722351074,2.234976053237915
1744304527.6,-1.1868823766708374,9.351485252380371,2.3785505294799805
1744304527.6,-1.7133221626281738,10.007142066955566,2.14404559135437
1744304527.6,-1.8664683103561401,10.44265079498291,2.129688262939453
1744304527.6,-1.8425391912460327,10.126787185668945,2.2589051723480225
1744304527.6,-1.5888910293579102,9.89706802368164,2.1871180534362793
1744304527.6,-1.2778129577636719,9.763065338134766,2.1057591438293457
1744304527.6,-1.043307900428772,9.552489280700684,2.134474039077759
1744304527.674,-0.9093050956726074,9.351485252380371,2.1871180534362793
1744304527.674,-1.0672370195388794,9.490273475646973,1.9908995628356934
1744304527.674,-1.2155972719192505,9.47113037109375,1.8186101913452148
1744304527.674,-1.296956181526184,9.56684684753418,1.6846072673797607
1744304527.674,-1.359171748161316,9.724778175354004,1.560176134109497
1744304527.674,-1.4070299863815308,9.949711799621582,1.6846072673797607
1744304527.674,-1.517103672027588,9.605133056640625,2.4072654247283936
1744304527.674,-1.7372512817382812,9.164837837219238,2.4838385581970215
1744304527.749,-1.966970443725586,8.911190032958984,2.4120514392852783
1744304527.749,-1.847325086593628,8.82983112335205,2.550840139389038
1744304527.749,-1.5649619102478027,8.58575439453125,2.1105449199676514
1744304527.749,-1.4692455530166626,8.451751708984375,1.9478272199630737
1744304527.749,-1.5075321197509766,8.772400856018066,1.9143264293670654
1744304527.749,-1.2730270624160767,8.94947624206543,1.4692455530166626
1744304527.749,-1.0337363481521606,9.27969741821289,1.4118157625198364
1744304527.749,-0.9571632146835327,9.499845504760742,2.1536173820495605
1744304527.823,-0.8662327527999878,9.777422904968262,2.0004711151123047
1744304527.823,-0.7370156645774841,9.940139770507812,1.4357448816299438
1744304527.823,-0.7370156645774841,10.011927604675293,1.201239824295044
1744304527.823,-0.8566610813140869,10.059785842895508,1.2778129577636719
1744304527.823,-0.9619490504264832,10.031070709228516,1.4213874340057373
1744304527.823,-1.1294525861740112,9.964069366455078,1.6176059246063232
1744304527.823,-1.3304568529129028,9.830066680908203,1.7133221626281738
1744304527.823,-1.6271774768829346,9.581204414367676,1.6846072673797607
1744304527.897,-1.6319633722305298,9.47113037109375,1.464459776878357
1744304527.897,-1.5075321197509766,9.490273475646973,1.0863802433013916
1744304527.897,-1.2778129577636719,9.64341926574707,0.8997334241867065
1744304527.897,-1.0672370195388794,9.700849533081055,1.1007376909255981
1744304527.897,-0.8470894694328308,9.667348861694336,1.306527853012085
1744304527.897,-0.8040171265602112,9.576417922973633,1.3256710767745972
1744304527.897,-0.8183745741844177,9.533346176147461,1.517103672027588
1744304527.897,-1.0145930051803589,9.571632385253906,1.5697476863861084
1744304527.971,-1.177310824394226,9.590775489807129,1.1198810338974
1744304527.971,-1.4740313291549683,9.66256332397461,1.4213874340057373
1744304527.971,-1.4405306577682495,9.629061698913574,1.8186101913452148
1744304527.971,-1.3160994052886963,9.538131713867188,1.612820029258728
1744304527.971,-1.1533817052841187,9.538131713867188,1.3735291957855225
1744304527.971,-1.072022795677185,9.724778175354004,1.584105134010315
1744304527.971,-0.9954497814178467,9.724778175354004,1.5793193578720093
1744304527.971,-0.8375178575515747,9.538131713867188,1.426173210144043
1744304528.045,-0.7800880670547485,9.413700103759766,1.335242748260498
1744304528.045,-0.7418015003204346,9.39934253692627,1.5362470149993896
1744304528.045,-0.7322298884391785,9.418486595153809,1.622391700744629
1744304528.045,-0.765730619430542,9.562060356140137,1.5027462244033813
1744304528.045,-0.7848738431930542,9.46155834197998,1.5075321197509766
1744304528.045,-0.7753022313117981,9.46155834197998,1.5649619102478027
1744304528.045,-0.7226582169532776,9.418486595153809,1.612820029258728
1744304528.045,-0.5790837407112122,9.451987266540527,1.5745335817337036
1744304528.12,-0.4211518168449402,9.47113037109375,1.6941789388656616
1744304528.12,-0.45943835377693176,9.552489280700684,1.7898952960968018
1744304528.12,-0.7418015003204346,9.66256332397461,1.770751953125
1744304528.12,-0.8566610813140869,9.55727481842041,1.5888910293579102
1744304528.12,-1.1438100337982178,9.408914566040039,1.4788172245025635
1744304528.12,-1.3543859720230103,9.327555656433105,1.4501023292541504
1744304528.12,-1.4357448816299438,9.356270790100098,1.5027462244033813
1744304528.12,-1.5123178958892822,9.514202117919922,1.517103672027588
1744304528.194,-1.2921704053878784,9.528559684753418,1.4118157625198364
1744304528.194,-1.0863802433013916,9.56684684753418,1.2586696147918701
1744304528.194,-1.0050214529037476,9.629061698913574,1.2873845100402832
1744304528.194,-0.8949476480484009,9.629061698913574,1.3400285243988037
1744304528.194,-0.7705163955688477,9.705635070800781,1.4118157625198364
1744304528.194,-0.708300769329071,9.796566009521484,1.3687434196472168
1744304528.194,-0.5503688454627991,9.801351547241211,1.5984625816345215
1744304528.194,-0.382865309715271,9.74870777130127,1.8233959674835205
1744304528.268,-0.35893622040748596,9.624276161193848,1.4596738815307617
1744304528.268,-0.3445787727832794,9.490273475646973,1.1964540481567383
1744304528.268,-0.37807947397232056,9.308412551879883,1.0050214529037476
1744304528.268,-0.3445787727832794,9.236625671386719,1.0289504528045654
1744304528.268,-0.3924369215965271,9.179195404052734,1.4596738815307617
1744304528.268,-0.5790837407112122,9.490273475646973,1.8664683103561401
1744304528.268,-0.7561589479446411,9.47113037109375,1.876039981842041
1744304528.268,-0.8901618123054504,9.581204414367676,1.2347406148910522
1744304528.343,-0.8614469170570374,9.64341926574707,0.9858781099319458
1744304528.343,-0.9763064980506897,9.853995323181152,1.416601538658142
1744304528.343,-1.1007376909255981,9.877924919128418,1.689393162727356
1744304528.343,-1.2060257196426392,9.786993980407715,1.6080342531204224
1744304528.343,-1.1246668100357056,9.801351547241211,1.5123178958892822
1744304528.343,-1.0385221242904663,9.83485221862793,1.4836030006408691
1744304528.343,-0.8279461860656738,9.619490623474121,1.4070299863815308
1744304528.343,-0.569512128829956,9.648205757141113,1.2921704053878784
1744304528.418,-0.3732936680316925,9.710420608520508,1.2251689434051514
1744304528.418,-0.31586387753486633,9.619490623474121,1.177310824394226
1744304528.418,-0.17707519233226776,9.451987266540527,1.0480937957763672
1744304528.418,-0.25843408703804016,9.27969741821289,1.0098072290420532
1744304528.418,-0.31586387753486633,9.270126342773438,0.9810923337936401
1744304528.418,-0.5838695764541626,9.523774147033691,0.9475916028022766
1744304528.418,-0.7035149931907654,9.734350204467773,0.9858781099319458
1744304528.418,-0.9906639456748962,9.877924919128418,1.1150951385498047
1744304528.492,-1.0528795719146729,10.07892894744873,1.4740313291549683
1744304528.492,-1.2347406148910522,10.208146095275879,1.3256710767745972
1744304528.492,-1.3256710767745972,10.236861228942871,1.072022795677185
1744304528.492,-1.3400285243988037,10.318220138549805,1.1725249290466309
1744304528.492,-1.2108114957809448,10.169858932495117,1.4357448816299438
1744304528.492,-1.1820966005325317,10.141144752502441,1.1294525861740112
1744304528.492,-1.1677391529083252,9.81092357635498,1.521889567375183
1744304528.492,-1.3783150911331177,9.82528018951416,1.5984625816345215
1744304528.566,-1.3448143005371094,9.743921279907227,1.6080342531204224
1744304528.566,-1.426173210144043,9.609918594360352,1.5553902387619019
1744304528.566,-1.4501023292541504,9.562060356140137,1.4596738815307617
1744304528.566,-1.3687434196472168,9.542917251586914,1.5553902387619019
1744304528.566,-1.464459776878357,9.504631042480469,1.306527853012085
1744304528.566,-1.3783150911331177,9.66256332397461,1.2443121671676636
1744304528.566,-1.3974583148956299,9.772636413574219,1.3543859720230103
1744304528.566,-1.387886643409729,9.734350204467773,1.1677391529083252
1744304528.64,-1.4118157625198364,9.66256332397461,1.1533817052841187
1744304528.64,-1.387886643409729,9.619490623474121,1.1820966005325317
1744304528.64,-1.4979604482650757,9.432844161987305,1.4118157625198364
1744304528.64,-1.4022440910339355,9.174409866333008,1.3256710767745972
1744304528.64,-1.3974583148956299,9.183980941772461,1.177310824394226
1744304528.64,-1.3160994052886963,9.069121360778809,1.0098072290420532
1744304528.64,-1.1964540481567383,9.016477584838867,0.9475916028022766
1744304528.64,-1.1725249290466309,8.93990421295166,1.139024257659912
1744304528.714,-1.2108114957809448,9.03562068939209,1.2586696147918701
1744304528.714,-1.1964540481567383,8.997334480285645,1.4596738815307617
1744304528.714,-1.2778129577636719,9.026049613952637,1.622391700744629
1744304528.714,-1.454888105392456,9.083478927612305,1.8329676389694214
1744304528.714,-1.6176059246063232,9.31319808959961,1.904754877090454
1744304528.714,-1.742037057876587,9.408914566040039,1.5745335817337036
1744304528.714,-1.7085363864898682,9.485487937927246,1.2347406148910522
1744304528.714,-1.5123178958892822,9.394556999206543,1.229954719543457
1744304528.789,-1.4309589862823486,9.389771461486816,1.5553902387619019
1744304528.789,-1.3208853006362915,9.46155834197998,2.129688262939453
1744304528.789,-1.3926725387573242,9.442415237426758,2.550840139389038
1744304528.789,-1.49317467212677,9.423272132873535,1.9765421152114868
1744304528.789,-1.6702498197555542,9.19355297088623,1.296956181526184
1744304528.789,-1.5936768054962158,9.13133716583252,1.3639576435089111
1744304528.789,-1.718108057975769,9.198338508605957,1.8999689817428589
1744304528.789,-1.6080342531204224,9.22705364227295,1.9191123247146606
1744304528.863,-1.4979604482650757,9.317984580993652,1.7563945055007935
1744304528.863,-1.3400285243988037,9.370628356933594,1.7516087293624878
1744304528.863,-1.2873845100402832,9.46155834197998,1.8664683103561401
1744304528.863,-1.3735291957855225,9.523774147033691,1.8233959674835205
1744304528.863,-1.5027462244033813,9.571632385253906,1.8186101913452148
1744304528.863,-1.5793193578720093,9.533346176147461,1.8281817436218262
1744304528.863,-1.7085363864898682,9.394556999206543,1.7946810722351074
1744304528.863,-1.7468229532241821,9.121766090393066,1.8521108627319336
1744304528.937,-1.7085363864898682,9.030835151672363,1.799466848373413
1744304528.937,-1.7563945055007935,8.992548942565918,1.7946810722351074
1744304528.937,-1.7468229532241821,9.030835151672363,1.799466848373413
1744304528.937,-1.718108057975769,8.963833808898926,1.5266753435134888
1744304528.937,-1.6558923721313477,8.944690704345703,1.4788172245025635
1744304528.937,-1.6558923721313477,8.92554759979248,1.6702498197555542
1744304528.937,-1.7946810722351074,8.973404884338379,1.9095406532287598
1744304528.937,-1.8281817436218262,9.116979598999023,1.718108057975769
1744304529.011,-1.9861136674880981,9.303627014160156,1.517103672027588
1744304529.011,-1.9334697723388672,9.389771461486816,1.6750357151031494
1744304529.011,-1.8329676389694214,9.518988609313965,1.7611804008483887
1744304529.011,-1.7372512817382812,9.4950590133667,1.4883887767791748
1744304529.011,-1.7276796102523804,9.585989952087402,1.5649619102478027
1744304529.011,-1.4979604482650757,9.609918594360352,1.689393162727356
1744304529.011,-1.4309589862823486,9.734350204467773,1.6319633722305298
1744304529.011,-1.3926725387573242,9.820494651794434,1.464459776878357
1744304529.085,-1.3926725387573242,9.686491966247559,1.4740313291549683
1744304529.085,-1.612820029258728,9.882710456848145,1.359171748161316
1744304529.085,-1.7372512817382812,9.89706802368164,1.560176134109497
1744304529.085,-1.6654640436172485,9.753493309020996,1.6271774768829346
1744304529.085,-1.5793193578720093,9.7391357421875,1.7468229532241821
1744304529.085,-1.679821491241455,9.466344833374023,1.7803236246109009
1744304529.085,-1.6941789388656616,9.418486595153809,1.7563945055007935
1744304529.085,-1.6750357151031494,9.308412551879883,1.7898952960968018
1744304529.16,-1.679821491241455,9.241411209106445,1.7037506103515625
1744304529.16,-1.6176059246063232,9.21748161315918,1.689393162727356
1744304529.16,-1.6415349245071411,9.255768775939941,1.6032484769821167
1744304529.16,-1.6271774768829346,9.188767433166504,1.6319633722305298
1744304529.16,-1.6702498197555542,9.337127685546875,1.7468229532241821
1744304529.16,-1.8329676389694214,9.56684684753418,1.7468229532241821
1744304529.16,-1.8521108627319336,9.629061698913574,1.7803236246109009
1744304529.16,-1.9621846675872803,9.815709114074707,1.9478272199630737
1744304529.234,-1.7803236246109009,9.853995323181152,2.402479648590088
1744304529.234,-1.876039981842041,9.806137084960938,2.053115129470825
1744304529.234,-1.799466848373413,9.901853561401367,1.7659661769866943
1744304529.234,-1.8951832056045532,9.858781814575195,2.0004711151123047
1744304529.234,-1.7946810722351074,9.7391357421875,2.014828681945801
1744304529.234,-1.7516087293624878,9.743921279907227,1.8808257579803467
1744304529.234,-1.8281817436218262,9.729564666748047,2.402479648590088
1744304529.234,-2.10097336769104,9.734350204467773,2.431194543838501
1744304529.308,-2.191903829574585,9.614705085754395,1.7133221626281738
1744304529.308,-2.0674726963043213,9.404129028320312,1.3496001958847046
1744304529.308,-1.8329676389694214,9.332341194152832,1.622391700744629
1744304529.308,-1.809038519859314,9.327555656433105,1.7611804008483887
1744304529.308,-1.7037506103515625,9.346698760986328,1.5649619102478027
1744304529.308,-1.8903974294662476,9.39934253692627,1.6367491483688354
1744304529.308,-2.1871180534362793,9.485487937927246,1.928683876991272
1744304529.308,-1.9861136674880981,9.21748161315918,1.809038519859314
1744304529.382,-1.9191123247146606,9.059550285339355,1.6654640436172485
1744304529.382,-1.8186101913452148,8.9590482711792,1.6558923721313477
1744304529.382,-1.7324655055999756,8.915975570678711,1.7133221626281738
1744304529.382,-1.7228938341140747,8.877689361572266,1.689393162727356
1744304529.382,-1.7276796102523804,9.03562068939209,1.7133221626281738
1744304529.382,-1.9191123247146606,9.246196746826172,1.7133221626281738
1744304529.382,-2.0483293533325195,9.418486595153809,1.7085363864898682
1744304529.382,-2.038757801055908,9.509416580200195,1.8999689817428589
1744304529.457,-2.014828681945801,9.700849533081055,1.8329676389694214
1744304529.457,-2.177546262741089,9.839637756347656,1.6080342531204224
1744304529.457,-2.057900905609131,9.911425590515137,1.4979604482650757
1744304529.457,-2.191903829574585,9.791779518127441,2.134474039077759
1744304529.457,-1.9621846675872803,9.786993980407715,1.8808257579803467
1744304529.457,-1.8951832056045532,9.925783157348633,1.7228938341140747
1744304529.457,-1.8808257579803467,9.9832124710083,1.8233959674835205
1744304529.457,-1.8281817436218262,9.892282485961914,1.8616825342178345
1744304529.531,-1.7276796102523804,9.830066680908203,1.8808257579803467
1744304529.531,-1.5793193578720093,9.772636413574219,1.799466848373413
1744304529.531,-1.3783150911331177,9.624276161193848,1.9382555484771729
1744304529.531,-1.387886643409729,9.533346176147461,1.9717562198638916
1744304529.531,-1.335242748260498,9.538131713867188,1.928683876991272
1744304529.531,-1.3639576435089111,9.518988609313965,1.8808257579803467
1744304529.531,-1.2538838386535645,9.332341194152832,1.9143264293670654
1744304529.531,-1.1294525861740112,9.073907852172852,2.043543577194214
1744304529.605,-1.0385221242904663,8.963833808898926,2.1201164722442627
1744304529.605,-0.9428057670593262,8.911190032958984,2.0339717864990234
1744304529.605,-0.9954497814178467,8.748472213745117,2.072258472442627
1744304529.605,-0.923662543296814,8.786758422851562,1.8999689817428589
1744304529.605,-1.1055235862731934,8.825044631958008,1.9813278913497925
1744304529.605,-0.9571632146835327,8.92554759979248,1.957398772239685
1744304529.605,-0.9380199909210205,9.160052299499512,1.837753415107727
1744304529.605,-0.8710185289382935,9.356270790100098,1.966970443725586
1744304529.679,-0.8710185289382935,9.518988609313965,2.0196144580841064
1744304529.679,-0.8518753051757812,9.753493309020996,1.7659661769866943
1744304529.679,-0.9332341551780701,9.777422904968262,2.010042905807495
1744304529.679,-1.0337363481521606,9.9832124710083,2.2014753818511963
1744304529.679,-1.110309362411499,9.959283828735352,2.0004711151123047
1744304529.679,-1.1342384815216064,9.873138427734375,1.5649619102478027
1744304529.679,-0.8183745741844177,9.528559684753418,2.0339717864990234
1744304529.679,-0.8088029623031616,8.930333137512207,2.0291860103607178
1744304529.753,-0.8183745741844177,8.930333137512207,1.8425391912460327
1744304529.753,-0.7226582169532776,8.805901527404785,2.464695453643799
1744304529.753,-0.9667348861694336,8.207674980163574,2.7566301822662354
1744304529.753,-1.0624512434005737,9.026049613952637,2.115330696105957
1744304529.753,-1.0241646766662598,9.021263122558594,1.7037506103515625
1744304529.753,-1.0672370195388794,8.174174308776855,2.837989091873169
1744304529.753,-0.5838695764541626,7.384514331817627,1.7803236246109009
1744304529.753,0.9858781099319458,7.6908063888549805,1.7324655055999756
1744304529.828,0.363722026348114,9.36584186553955,1.6415349245071411
1744304529.828,-0.8327320218086243,8.580968856811523,2.014828681945801
1744304529.828,-0.44986671209335327,7.92531156539917,2.3785505294799805
1744304529.828,-0.9858781099319458,9.231839179992676,1.560176134109497
1744304529.828,-1.5649619102478027,9.04519271850586,2.852346420288086
1744304529.828,-1.2921704053878784,9.126551628112793,2.1249024868011475
1744304529.828,-1.3974583148956299,9.791779518127441,1.5123178958892822
1744304529.828,-0.5072965025901794,9.629061698913574,2.129688262939453
1744304529.903,-0.24407662451267242,9.82528018951416,2.1536173820495605
1744304529.903,-0.19621846079826355,10.62451171875,1.7755378484725952
1744304529.903,-0.27757734060287476,11.390242576599121,1.904754877090454
1744304529.903,-0.8423036336898804,12.28519058227539,1.8664683103561401
1744304529.903,-1.0289504528045654,12.189474105834961,2.010042905807495
1744304529.903,-0.9380199909210205,11.438100814819336,2.177546262741089
1744304529.903,-0.7609447836875916,11.040878295898438,2.14404559135437
1744304529.903,-0.746587336063385,10.983448028564453,2.837989091873169
1744304529.977,-0.7848738431930542,10.586225509643555,2.699200391769409
1744304529.977,-0.8279461860656738,10.236861228942871,2.3976938724517822
1744304529.977,-1.081594467163086,9.791779518127441,2.3306925296783447
1744304529.977,-1.1629533767700195,9.236625671386719,2.325906753540039
1744304529.977,-1.2586696147918701,8.839402198791504,2.0004711151123047
1744304529.977,-1.2347406148910522,8.365606307983398,2.134474039077759
1744304529.977,-1.0050214529037476,8.183745384216309,2.1201164722442627
1744304529.977,-0.9284483194351196,7.915740013122559,2.1105449199676514
1744304530.051,-0.765730619430542,7.8726677894592285,2.172760486602783
1744304530.051,-0.6891575455665588,7.595090389251709,2.2014753818511963
1744304530.051,-0.7322298884391785,7.906168460845947,2.1105449199676514
1744304530.051,-0.8662327527999878,8.303391456604004,2.043543577194214
1744304530.051,-0.8949476480484009,8.475680351257324,2.14404559135437
1744304530.051,-0.8231604099273682,8.93990421295166,2.134474039077759
1744304530.051,-0.6508709788322449,9.284482955932617,2.1392598152160645
1744304530.051,-0.5742979645729065,9.145694732666016,2.1249024868011475
1744304530.126,-0.5790837407112122,9.298840522766113,2.0818300247192383
1744304530.126,-0.5934411883354187,9.538131713867188,2.0052568912506104
1744304530.126,-0.708300769329071,9.806137084960938,1.9621846675872803
1744304530.126,-0.8088029623031616,10.126787185668945,2.038757801055908
1744304530.126,-0.8518753051757812,10.01671314239502,2.2876200675964355
1744304530.126,-0.7944455146789551,9.7391357421875,2.5316967964172363
1744304530.126,-0.7561589479446411,9.547703742980957,2.6034839153289795
1744304530.126,-0.904519259929657,9.160052299499512,2.5747690200805664
1744304530.2,-0.7322298884391785,8.92554759979248,2.747058391571045
1744304530.2,-0.904519259929657,9.341913223266602,2.1105449199676514
1744304530.2,-0.7513731122016907,8.901618003845215,2.1201164722442627
1744304530.2,-0.6365135312080383,8.882474899291992,2.4264087677001953
1744304530.2,-0.45943835377693176,8.92554759979248,2.479052782058716
1744304530.2,-0.31586387753486633,9.0978364944458,2.507767677307129
1744304530.2,-0.08614469319581985,9.174409866333008,2.072258472442627
1744304530.2,-0.38765111565589905,9.021263122558594,2.8284173011779785
1744304530.274,-0.5599405169487,8.892046928405762,2.7374868392944336
1744304530.274,-0.7130866050720215,8.360820770263672,2.5173392295837402
1744304530.274,-0.7130866050720215,7.963598251342773,2.3833365440368652
1744304530.274,-0.5120823383331299,7.671663284301758,2.402479648590088
1744304530.274,-0.48815324902534485,7.250511646270752,2.464695453643799
1744304530.274,-0.44029510021209717,7.173938274383545,2.263690948486328
1744304530.274,-0.34936457872390747,6.977719783782959,2.163188934326172
1744304530.274,-0.29672059416770935,6.9107184410095215,2.220618724822998
1744304530.348,-0.23929080367088318,6.733643531799316,2.024400234222412
1744304530.348,-0.18664683401584625,6.795858860015869,2.148831367492676
1744304530.348,-0.08614469319581985,6.8054304122924805,2.072258472442627
1744304530.348,-0.10528795421123505,6.834145545959473,2.2254045009613037
1744304530.348,-0.06221561133861542,6.977719783782959,2.3211207389831543
1744304530.348,-0.03828652948141098,7.092579364776611,2.4981961250305176
1744304530.348,-0.1722893863916397,7.0160064697265625,2.5604116916656494
1744304530.348,-0.29672059416770935,6.781501770019531,2.6561279296875
1744304530.422,-0.46900999546051025,6.666641712188721,2.7949166297912598
1744304530.422,-0.569512128829956,6.465637683868408,2.7566301822662354
1744304530.422,-0.6604426503181458,6.259847640991211,2.6034839153289795
1744304530.422,-0.6843717098236084,5.953555107116699,2.2876200675964355
1744304530.422,-0.4737958014011383,5.446259021759033,2.713557720184326
1744304530.422,-0.39722275733947754,5.0346784591674805,1.847325086593628
1744304530.422,-0.2632198929786682,4.527381896972656,1.622391700744629
1744304530.422,0.014357448555529118,4.192375183105469,1.6271774768829346
1744304530.497,-0.0047858161851763725,4.158874034881592,1.4596738815307617
1744304530.497,0.12921704351902008,3.8382246494293213,1.416601538658142
1744304530.497,0.13878867030143738,3.7760090827941895,1.6702498197555542
1744304530.497,0.13400284945964813,3.7137932777404785,1.7755378484725952
1744304530.497,0.08614469319581985,3.905225992202759,1.8616825342178345
1744304530.497,-0.28714898228645325,4.5991692543029785,1.7803236246109009
1744304530.497,-0.923662543296814,6.350778102874756,1.2203831672668457
1744304530.497,-1.4213874340057373,8.30817699432373,3.034207344055176
1744304530.571,-2.373764753341675,10.844659805297852,4.350306987762451
1744304530.571,-3.034207344055176,13.543859481811523,3.828652858734131
1744304530.571,-3.9578700065612793,17.415584564208984,3.350071430206299
1744304530.571,-4.824102878570557,21.263381958007812,2.9624202251434326
1744304530.571,-5.441473007202148,23.804649353027344,3.0246357917785645
1744304530.571,-5.331399440765381,24.512950897216797,3.259140729904175
1744304530.571,-3.3404996395111084,22.143972396850586,4.249804973602295
1744304530.571,-1.995685338973999,17.67401885986328,5.26918363571167
1744304530.645,-1.5745335817337036,16.003768920898438,5.26918363571167
1744304530.645,-1.3496001958847046,14.309590339660645,5.982270240783691
1744304530.645,-1.416601538658142,13.3859281539917,5.470187664031982
1744304530.645,-1.8425391912460327,14.668526649475098,4.910247325897217
1744304530.645,-2.7949166297912598,16.12820053100586,5.388829231262207
1744304530.645,-3.54150390625,16.262203216552734,5.297898292541504
1744304530.645,-3.3835721015930176,14.979604721069336,5.154324054718018
1744304530.645,-3.077279806137085,12.797272682189941,4.489095687866211
1744304530.719,-2.7422726154327393,11.529030799865723,3.8765110969543457
1744304530.719,-2.536482572555542,10.437865257263184,3.436216115951538
1744304530.719,-2.0483293533325195,9.126551628112793,3.7329366207122803
1744304530.719,-1.4883887767791748,7.910953998565674,3.182567834854126
1744304530.719,-1.0480937957763672,7.3318705558776855,2.833203077316284
1744304530.719,-0.679585874080658,6.838931560516357,3.302213191986084
1744304530.719,-0.8135887384414673,6.374707221984863,3.378786325454712
1744304530.719,-0.9571632146835327,5.881768226623535,3.2974274158477783
1744304530.793,-1.229954719543457,5.97269868850708,2.488624334335327
1744304530.793,-1.4357448816299438,5.991841793060303,2.833203077316284
1744304530.793,-1.7085363864898682,7.011220932006836,2.775773286819458
1744304530.793,-1.7659661769866943,7.40365743637085,2.909776210784912
1744304530.793,-1.7324655055999756,7.7673797607421875,2.9767775535583496
1744304530.793,-1.622391700744629,7.843952655792236,3.1442811489105225
1744304530.793,-1.521889567375183,7.9683837890625,3.35964298248291
1744304530.793,-1.2825987339019775,7.930097579956055,3.6228628158569336
1744304530.868,-0.904519259929657,8.030599594116211,3.7472941875457764
1744304530.868,-0.6221560835838318,8.083243370056152,3.843010425567627
1744304530.868,-0.6891575455665588,8.068885803222656,3.6850783824920654
1744304530.868,-0.7896596789360046,8.049742698669434,3.273498296737671
1744304530.868,-0.8901618123054504,8.178959846496582,3.019850015640259
1744304530.868,-0.9858781099319458,8.408679008483887,3.019850015640259
1744304530.868,-1.1294525861740112,8.475680351257324,3.407501220703125
1744304530.868,-1.1246668100357056,8.432607650756836,3.646791934967041
1744304530.942,-1.229954719543457,8.504395484924316,3.785580635070801
1744304530.942,-1.3543859720230103,8.485252380371094,3.8525819778442383
1744304530.942,-1.4883887767791748,8.590539932250977,3.8765110969543457
1744304530.942,-1.7659661769866943,8.75804328918457,3.8669395446777344
1744304530.942,-1.7803236246109009,8.834616661071777,4.1205878257751465
1744304530.942,-1.689393162727356,8.801115989685059,4.072729587554932
1744304530.942,-1.7133221626281738,8.815473556518555,4.230661392211914
1744304530.942,-1.5793193578720093,8.93990421295166,4.422094345092773
1744304531.016,-1.416601538658142,9.054763793945312,4.20194673538208
1744304531.016,-1.2730270624160767,9.179195404052734,4.28809118270874
1744304531.016,-1.3400285243988037,8.547467231750488,5.6807637214660645
1744304531.016,-1.1438100337982178,8.848974227905273,4.3311638832092285
1744304531.016,-1.8042527437210083,10.303862571716309,2.325906753540039
1744304531.016,-4.211518287658691,12.945632934570312,2.8858470916748047
1744304531.016,-3.4553592205047607,8.686256408691406,9.547703742980957
1744304531.016,0.25843408703804016,10.189002990722656,5.5898332595825195
1744304531.09,1.770751953125,9.016477584838867,3.2304258346557617
1744304531.09,0.46900999546051025,8.915975570678711,2.9480626583099365
1744304531.09,-0.6891575455665588,9.13133716583252,3.196925163269043
1744304531.09,-0.8231604099273682,9.231839179992676,4.034442901611328
1744304531.09,-1.3448143005371094,9.01169204711914,3.9387266635894775
1744304531.09,-1.5027462244033813,9.126551628112793,3.436216115951538
1744304531.09,-1.1916682720184326,10.418722152709961,3.5319323539733887
1744304531.09,-1.3160994052886963,11.442886352539062,3.766437292098999
1744304531.165,-1.2538838386535645,11.734821319580078,4.10623025894165
1744304531.165,-0.7944455146789551,11.7539644241333,3.4745025634765625
1744304531.165,-0.6173703074455261,12.141615867614746,2.957634449005127
1744304531.165,-0.5647262930870056,12.557981491088867,2.699200391769409
1744304531.165,-0.41636601090431213,12.294761657714844,2.8571321964263916
1744304531.165,-0.30629223585128784,11.758749961853027,2.5747690200805664
1744304531.165,-0.28714898228645325,10.949947357177734,2.7949166297912598
1744304531.165,-0.43550926446914673,10.299076080322266,2.7231295108795166
1744304531.239,-0.17707519233226776,9.39934253692627,2.4503378868103027
1744304531.239,-0.15793193876743317,8.375178337097168,1.8616825342178345
1744304531.239,0.09571632742881775,7.470659255981445,1.239526391029358
1744304531.239,0.25843408703804016,7.059078693389893,1.531461238861084
1744304531.239,0.6125844717025757,7.087793827056885,1.5793193578720093
1744304531.239,0.9906639456748962,7.059078693389893,1.201239824295044
1744304531.239,1.2921704053878784,7.408443450927734,0.5647262930870056
1744304531.239,1.6702498197555542,7.619019508361816,-0.09571632742881775
1744304531.313,1.809038519859314,8.494823455810547,0.028714897111058235
1744304531.313,1.4740313291549683,8.920761108398438,0.41636601090431213
1744304531.313,0.9667348861694336,9.102622032165527,0.9906639456748962
1744304531.313,0.6556568145751953,9.71520709991455,1.0050214529037476
1744304531.313,-0.20579010248184204,10.337363243103027,0.6700142621994019
1744304531.313,-0.8040171265602112,11.24188232421875,1.7037506103515625
1744304531.313,-0.8423036336898804,11.23231029510498,1.239526391029358
1744304531.313,-0.7992312908172607,11.6151762008667,2.038757801055908
1744304531.387,0.27757734060287476,11.174880981445312,2.732701063156128
1744304531.387,0.8088029623031616,11.040878295898438,3.000706672668457
1744304531.387,1.2873845100402832,10.241646766662598,3.1012089252471924
1744304531.387,0.9906639456748962,8.973404884338379,2.7997024059295654
1744304531.387,0.25843408703804016,7.657305717468262,2.3306925296783447
1744304531.387,-0.5742979645729065,7.116508483886719,2.2589051723480225
1744304531.387,-0.8853759765625,6.920289993286133,2.373764753341675
1744304531.387,-0.7370156645774841,7.193081855773926,2.325906753540039
1744304531.461,-0.382865309715271,7.341442108154297,2.416837215423584
1744304531.461,-0.14836029708385468,7.7960944175720215,2.4694812297821045
1744304531.461,0.2632198929786682,8.178959846496582,2.464695453643799
1744304531.461,-0.2105759084224701,9.31319808959961,2.373764753341675
1744304531.461,-0.6412993669509888,9.533346176147461,2.3354783058166504
1744304531.461,-0.9667348861694336,9.71520709991455,2.325906753540039
1744304531.461,-1.3113136291503906,9.624276161193848,2.2445478439331055
1744304531.461,-1.9765421152114868,9.686491966247559,2.373764753341675
1744304531.536,-1.6606782674789429,9.724778175354004,2.445552110671997
1744304531.536,-1.1150951385498047,9.638633728027344,2.3354783058166504
1744304531.536,-0.7705163955688477,9.657776832580566,2.5699832439422607
1744304531.536,-0.5025107264518738,9.7391357421875,2.627413034439087
1744304531.536,-0.2727915346622467,9.686491966247559,2.6561279296875
1744304531.536,-0.2823631465435028,9.552489280700684,2.6609137058258057
1744304531.536,-0.19621846079826355,9.56684684753418,2.416837215423584
1744304531.536,-0.3732936680316925,9.696063995361328,2.4359803199768066
1744304531.611,-0.39722275733947754,9.65299129486084,2.5604116916656494
1744304531.611,-0.5982270240783691,9.394556999206543,2.536482572555542
1744304531.611,-0.6317277550697327,9.255768775939941,2.373764753341675
1744304531.611,-0.8183745741844177,9.27969741821289,2.4264087677001953
1744304531.611,-0.8040171265602112,9.28926944732666,2.445552110671997
1744304531.611,-0.7705163955688477,9.222268104553223,2.3785505294799805
1744304531.611,-0.8518753051757812,9.27969741821289,2.4503378868103027
1744304531.611,-0.765730619430542,9.212696075439453,2.373764753341675
1744304531.685,-0.6652284264564514,9.102622032165527,2.4981961250305176
1744304531.685,-0.5790837407112122,9.0978364944458,2.5604116916656494
1744304531.685,-0.7370156645774841,9.054763793945312,2.4503378868103027
1744304531.685,-0.8901618123054504,9.140909194946289,2.479052782058716
1744304531.685,-0.9380199909210205,9.073907852172852,2.5173392295837402
1744304531.685,-1.072022795677185,9.064335823059082,2.550840139389038
1744304531.685,-0.9954497814178467,9.112194061279297,2.627413034439087
1744304531.685,-0.8853759765625,9.22705364227295,2.6082699298858643
1744304531.759,-1.0002355575561523,9.260554313659668,2.507767677307129
1744304531.759,-1.110309362411499,9.394556999206543,2.5891265869140625
1744304531.759,-0.7226582169532776,9.38498592376709,2.5891265869140625
1744304531.759,-0.5790837407112122,9.523774147033691,2.536482572555542
1744304531.759,-0.2105759084224701,10.390007019042969,2.6465563774108887
1744304531.759,0.30629223585128784,9.236625671386719,2.5604116916656494
1744304531.759,1.2347406148910522,8.236390113830566,2.416837215423584
1744304531.759,1.7898952960968018,8.801115989685059,2.4359803199768066
1744304531.834,-0.9475916028022766,10.614940643310547,1.5888910293579102
1744304531.834,-0.9093050956726074,10.232074737548828,1.7324655055999756
1744304531.834,-0.46900999546051025,9.260554313659668,2.747058391571045
1744304531.834,-0.8279461860656738,9.849209785461426,2.479052782058716
1744304531.834,-2.1871180534362793,12.352191925048828,2.9528486728668213
1744304531.834,-1.2203831672668457,11.351956367492676,2.713557720184326
1744304531.834,-1.7085363864898682,10.069356918334961,2.368978977203369
1744304531.834,-2.010042905807495,9.518988609313965,2.9145619869232178
1744304531.908,-1.3543859720230103,9.485487937927246,3.254354953765869
1744304531.908,-1.3400285243988037,9.389771461486816,3.1490671634674072
1744304531.908,-1.531461238861084,9.686491966247559,2.7231295108795166
1744304531.908,-1.3926725387573242,9.629061698913574,2.703986167907715
1744304531.908,-1.5266753435134888,9.394556999206543,2.8571321964263916
1744304531.908,-1.622391700744629,9.404129028320312,3.105994701385498
1744304531.908,-1.4022440910339355,9.987998008728027,2.5316967964172363
1744304531.908,-1.5506044626235962,11.658247947692871,2.8714897632598877
1744304531.982,-2.0052568912506104,12.246903419494629,3.464931011199951
1744304531.982,-1.9765421152114868,11.088736534118652,2.732701063156128
1744304531.982,-2.072258472442627,10.184216499328613,1.9621846675872803
1744304531.982,-1.9526129961013794,10.916446685791016,2.1823322772979736
1744304531.982,-1.8616825342178345,11.653462409973145,2.641770601272583
1744304531.982,-1.7611804008483887,11.672605514526367,2.3450498580932617
1744304531.982,-1.4836030006408691,10.830302238464355,2.4407663345336914
1744304531.982,-1.2490980625152588,10.122001647949219,2.3641932010650635
1744304532.056,-1.2203831672668457,9.437629699707031,2.0770442485809326
1744304532.056,-1.2778129577636719,8.882474899291992,2.263690948486328
1744304532.056,-1.3113136291503906,8.509181022644043,1.8712540864944458
1744304532.056,-1.5266753435134888,8.255533218383789,2.206261157989502
1744304532.056,-1.2730270624160767,7.628591060638428,1.651106595993042
1744304532.056,-1.2251689434051514,7.628591060638428,1.464459776878357
1744304532.056,-1.2155972719192505,7.3797287940979,1.7372512817382812
1744304532.056,-1.2873845100402832,7.236154079437256,1.9430413246154785
1744304532.13,-1.5458186864852905,7.307941436767578,1.5410327911376953
1744304532.13,-1.7851094007492065,7.398871898651123,1.5458186864852905
1744304532.13,-1.9334697723388672,7.4658732414245605,1.9334697723388672
1744304532.13,-2.206261157989502,7.714735507965088,1.8425391912460327
1744304532.13,-2.359407424926758,8.145459175109863,1.7659661769866943
1744304532.13,-2.402479648590088,8.557039260864258,1.770751953125
1744304532.13,-2.388122320175171,8.796330451965332,1.7085363864898682
1744304532.13,-2.388122320175171,9.112194061279297,1.9430413246154785
1744304532.205,-2.459909439086914,9.447200775146484,2.2732627391815186
1744304532.205,-2.6226272583007812,9.882710456848145,2.359407424926758
1744304532.205,-2.7422726154327393,9.973641395568848,2.2254045009613037
1744304532.205,-2.732701063156128,10.002355575561523,2.5699832439422607
1744304532.205,-2.5412683486938477,10.040642738342285,2.431194543838501
1744304532.205,-2.402479648590088,10.11242961883545,2.464695453643799
1744304532.205,-2.359407424926758,10.11242961883545,2.6752712726593018
1744304532.205,-2.177546262741089,10.236861228942871,2.191903829574585
1744304532.279,-1.7851094007492065,9.705635070800781,3.0389933586120605
1744304532.279,-1.8521108627319336,9.590775489807129,3.2974274158477783
1744304532.279,-1.5410327911376953,9.93056869506836,2.0291860103607178
1744304532.279,-1.1581674814224243,10.01671314239502,1.7516087293624878
1744304532.279,-0.588655412197113,9.681706428527832,2.7805593013763428
1744304532.279,1.3113136291503906,9.485487937927246,3.259140729904175
1744304532.279,-2.148831367492676,8.978191375732422,1.2490980625152588
1744304532.279,-2.359407424926758,8.710185050964355,1.847325086593628
1744304532.353,-1.4022440910339355,8.51396656036377,2.038757801055908
1744304532.353,-1.2730270624160767,8.279461860656738,1.4070299863815308
1744304532.353,-1.4501023292541504,8.068885803222656,1.7324655055999756
1744304532.353,-1.454888105392456,7.920525550842285,1.9478272199630737
1744304532.353,-1.5027462244033813,8.365606307983398,1.9382555484771729
1744304532.353,-1.5888910293579102,8.753257751464844,1.4213874340057373
1744304532.353,-1.799466848373413,9.231839179992676,1.7372512817382812
1744304532.353,-1.612820029258728,9.552489280700684,2.115330696105957
1744304532.427,-1.7563945055007935,9.753493309020996,2.148831367492676
1744304532.427,-1.8951832056045532,9.480701446533203,1.876039981842041
1744304532.427,-1.9908995628356934,9.308412551879883,2.0483293533325195
1744304532.427,-1.9478272199630737,9.078693389892578,2.479052782058716
1744304532.427,-1.6846072673797607,9.040407180786133,2.177546262741089
1744304532.427,-1.7516087293624878,9.265339851379395,2.388122320175171
1744304532.427,-1.9095406532287598,9.380199432373047,3.091637372970581
1744304532.427,-2.220618724822998,9.002120018005371,2.900204658508301
1744304532.501,-2.254119396209717,8.667113304138184,2.3067634105682373
1744304532.501,-2.1966896057128906,8.561824798583984,2.493410348892212
1744304532.501,-2.158403158187866,8.561824798583984,3.043779134750366
1744304532.501,-2.0818300247192383,8.748472213745117,2.9815635681152344
1744304532.501,-1.8664683103561401,8.896832466125488,2.7853450775146484
1744304532.501,-1.6941789388656616,9.150480270385742,2.881061315536499
1744304532.501,-1.6606782674789429,9.236625671386719,3.000706672668457
1744304532.501,-1.7085363864898682,9.140909194946289,3.0868513584136963
1744304532.576,-1.5362470149993896,8.915975570678711,2.9528486728668213
1744304532.576,-1.531461238861084,8.781972885131836,3.058136463165283
1744304532.576,-1.5793193578720093,9.083478927612305,3.330928087234497
1744304532.576,-1.5027462244033813,9.083478927612305,3.1921393871307373
1744304532.576,-1.718108057975769,8.92554759979248,2.881061315536499
1744304532.576,-2.010042905807495,8.930333137512207,2.6513421535491943
1744304532.576,-1.8329676389694214,8.848974227905273,2.8284173011779785
1744304532.576,-1.6558923721313477,8.844188690185547,2.8475606441497803
1744304532.65,-1.7276796102523804,8.772400856018066,2.98634934425354
1744304532.65,-1.8329676389694214,8.872902870178223,3.048564910888672
1744304532.65,-1.9908995628356934,9.064335823059082,3.2304258346557617
1744304532.65,-2.479052782058716,9.4950590133667,3.350071430206299
1744304532.65,-1.957398772239685,8.418251037597656,3.378786325454712
1744304532.65,-1.9908995628356934,8.523538589477539,3.2495691776275635
1744304532.65,-1.8616825342178345,8.638398170471191,3.058136463165283
1744304532.65,-1.8903974294662476,9.026049613952637,3.062922477722168
1744304532.724,-1.7276796102523804,9.332341194152832,3.1777820587158203
1744304532.724,-1.6463208198547363,9.22705364227295,3.02942156791687
1744304532.724,-1.6176059246063232,9.155266761779785,2.8475606441497803
1744304532.724,-1.5793193578720093,9.31319808959961,3.062922477722168
1744304532.724,-1.718108057975769,9.370628356933594,3.2974274158477783
1744304532.724,-1.8616825342178345,9.380199432373047,3.4410018920898438
1744304532.724,-1.8568966388702393,9.542917251586914,3.4457876682281494
1744304532.724,-1.7037506103515625,9.81092357635498,3.584576368331909
1744304532.798,-1.5266753435134888,9.940139770507812,3.5319323539733887
1744304532.798,-1.6463208198547363,10.064571380615234,3.5510756969451904
1744304532.798,-1.6463208198547363,9.959283828735352,3.5223608016967773
1744304532.798,-1.5553902387619019,10.160287857055664,3.4553592205047607
1744304532.798,-1.7324655055999756,10.136358261108398,3.4745025634765625
1744304532.798,-1.8233959674835205,9.858781814575195,3.4888598918914795
1744304532.798,-1.9191123247146606,9.916211128234863,3.4170727729797363
1744304532.798,-1.9765421152114868,9.724778175354004,3.436216115951538
1744304532.873,-2.053115129470825,9.767850875854492,3.436216115951538
1744304532.873,-1.995685338973999,9.830066680908203,3.6085054874420166
1744304532.873,-1.8999689817428589,9.538131713867188,3.5175747871398926
1744304532.873,-2.024400234222412,9.361056327819824,3.5367181301116943
1744304532.873,-2.2397620677948,9.413700103759766,3.5606472492218018
1744304532.873,-2.2158329486846924,9.088264465332031,3.105994701385498
1744304532.873,-2.1823322772979736,9.576417922973633,2.713557720184326
1744304532.873,-2.2445478439331055,10.78244400024414,2.7805593013763428
1744304532.947,-2.6609137058258057,11.682177543640137,3.4314301013946533
1744304532.947,-2.928919553756714,10.969090461730957,3.6420061588287354
1744304532.947,-2.924133777618408,9.705635070800781,2.053115129470825
1744304532.947,-2.0770442485809326,9.317984580993652,1.2730270624160767
1744304532.947,-2.177546262741089,10.394792556762695,1.847325086593628
1744304532.947,-2.488624334335327,10.63408374786377,2.479052782058716
1744304532.947,-2.1679747104644775,10.098072052001953,2.5029819011688232
1744304532.947,-2.0961875915527344,10.141144752502441,2.0196144580841064
1744304533.021,-1.8664683103561401,9.743921279907227,1.2251689434051514
1744304533.021,-1.6606782674789429,9.126551628112793,0.6556568145751953
1744304533.021,-1.3926725387573242,9.026049613952637,1.2251689434051514
1744304533.021,-0.9906639456748962,8.202888488769531,1.3113136291503906
1744304533.021,-0.6748000979423523,7.877453327178955,0.8805902004241943
1744304533.021,-0.6939433217048645,7.78652286529541,1.0002355575561523
1744304533.021,-0.38765111565589905,7.126080513000488,1.3735291957855225
1744304533.021,-0.8518753051757812,7.437158584594727,0.6556568145751953
1744304533.096,-0.8088029623031616,7.0160064697265625,0.17707519233226776
1744304533.096,-0.7370156645774841,7.173938274383545,0.22493335604667664
1744304533.096,-0.8375178575515747,7.7673797607421875,0.6700142621994019
1744304533.096,-1.2108114957809448,8.848974227905273,1.0863802433013916
1744304533.096,-1.2873845100402832,9.590775489807129,1.3496001958847046
1744304533.096,-1.517103672027588,10.447436332702637,0.9667348861694336
1744304533.096,-1.4979604482650757,10.457008361816406,1.3017419576644897
1744304533.096,-1.1294525861740112,10.189002990722656,1.6271774768829346
1744304533.17,-1.2155972719192505,10.064571380615234,1.7276796102523804
1744304533.17,-1.5266753435134888,10.34693431854248,1.5410327911376953
1744304533.17,-1.5936768054962158,10.7298002243042,1.335242748260498
1744304533.17,-1.3448143005371094,10.753728866577148,1.799466848373413
1744304533.17,-1.2921704053878784,10.437865257263184,2.2445478439331055
1744304533.17,-1.5075321197509766,10.279932975769043,2.28283429145813
1744304533.17,-1.6463208198547363,10.011927604675293,2.1823322772979736
1744304533.17,-1.742037057876587,9.475915908813477,2.163188934326172
1744304533.245,-1.689393162727356,8.920761108398438,2.1105449199676514
1744304533.245,-1.622391700744629,8.384750366210938,2.0196144580841064
1744304533.245,-1.4118157625198364,7.992312908172607,1.8903974294662476
1744304533.245,-1.3783150911331177,7.748236179351807,1.9861136674880981
1744304533.245,-1.8999689817428589,7.724307537078857,1.966970443725586
1744304533.245,-1.8281817436218262,7.628591060638428,2.0674726963043213
1744304533.245,-1.5888910293579102,7.427586555480957,1.9238981008529663
1744304533.245,-1.426173210144043,7.628591060638428,1.8712540864944458
1744304533.319,-1.517103672027588,7.992312908172607,2.1201164722442627
1744304533.319,-1.5984625816345215,8.241175651550293,2.1105449199676514
1744304533.319,-1.4213874340057373,8.22203254699707,2.0483293533325195
1744304533.319,-1.2251689434051514,8.49003791809082,2.158403158187866
1744304533.319,-1.043307900428772,8.57618236541748,2.292405843734741
1744304533.319,-0.9332341551780701,8.638398170471191,2.732701063156128
1744304533.319,-1.043307900428772,9.126551628112793,2.6178414821624756
1744304533.319,-0.9380199909210205,9.600347518920898,2.4359803199768066
1744304533.393,-1.0911661386489868,10.07892894744873,2.3929080963134766
1744304533.393,-0.923662543296814,9.911425590515137,2.4694812297821045
1744304533.393,-0.7226582169532776,9.485487937927246,2.7997024059295654
1744304533.393,-0.6508709788322449,9.088264465332031,2.761415958404541
1744304533.393,-0.7130866050720215,8.815473556518555,2.7949166297912598
1744304533.393,-0.9428057670593262,8.868117332458496,2.809274196624756
1744304533.393,-1.0289504528045654,8.638398170471191,2.790130853652954
1744304533.393,-1.081594467163086,8.533110618591309,2.5412683486938477
1744304533.467,-1.3639576435089111,8.815473556518555,2.368978977203369
1744304533.467,-1.6941789388656616,9.088264465332031,2.699200391769409
1744304533.467,-1.8616825342178345,9.274911880493164,2.943276882171631
1744304533.467,-1.966970443725586,9.394556999206543,2.971991777420044
1744304533.467,-1.7659661769866943,9.47113037109375,2.7949166297912598
1744304533.467,-1.6176059246063232,9.571632385253906,2.7709875106811523
1744304533.467,-1.4836030006408691,9.629061698913574,2.900204658508301
1744304533.467,-1.416601538658142,9.973641395568848,2.6609137058258057
1744304533.542,-1.464459776878357,10.351720809936523,2.7662017345428467
1744304533.542,-1.5506044626235962,9.949711799621582,3.350071430206299
1744304533.542,-1.2730270624160767,9.743921279907227,3.225640058517456
1744304533.542,-1.081594467163086,10.332576751708984,2.584340810775757
1744304533.542,-1.1581674814224243,10.801587104797363,2.598698139190674
1744304533.542,-1.081594467163086,10.677155494689941,3.3548572063446045
1744304533.542,-0.8231604099273682,10.844659805297852,2.9959208965301514
1744304533.542,-0.7130866050720215,10.72022819519043,2.6609137058258057
1744304533.616,-0.8710185289382935,10.614940643310547,2.8140599727630615
1744304533.616,-0.569512128829956,10.385221481323242,2.6609137058258057
1744304533.616,-0.1722893863916397,11.213167190551758,2.1105449199676514
1744304533.616,-1.0768086910247803,13.448143005371094,2.0818300247192383
1744304533.616,-2.373764753341675,13.500787734985352,2.464695453643799
1744304533.616,-2.464695453643799,12.385692596435547,2.866703987121582
1744304533.616,-2.263690948486328,10.490509033203125,1.4213874340057373
1744304533.616,-1.7037506103515625,9.480701446533203,0.35893622040748596
1744304533.69,-1.072022795677185,8.738900184631348,1.847325086593628
1744304533.69,-1.2251689434051514,9.265339851379395,2.7662017345428467
1744304533.69,-1.904754877090454,10.45222282409668,1.904754877090454
1744304533.69,-2.593912363052368,11.055235862731934,1.1533817052841187
1744304533.69,-2.6944146156311035,10.212931632995605,1.229954719543457
1744304533.69,-3.000706672668457,9.03562068939209,1.0145930051803589
1744304533.69,-3.1442811489105225,8.461322784423828,0.36850783228874207
1744304533.69,-3.6228628158569336,7.22179651260376,0.7322298884391785
1744304533.764,-4.0583720207214355,7.6620917320251465,0.48815324902534485
1744304533.764,-4.6757426261901855,8.786758422851562,0.15314611792564392
1744304533.764,-4.891104221343994,9.605133056640625,-0.05264397710561752
1744304533.764,-4.321591854095459,10.050213813781738,0.24886244535446167
1744304533.764,-3.4122869968414307,10.007142066955566,0.4833674430847168
1744304533.764,-2.479052782058716,10.351720809936523,0.540797233581543
1744304533.764,-2.057900905609131,10.658012390136719,0.6939433217048645
1744304533.764,-2.0004711151123047,11.05044937133789,0.9715206623077393
1744304533.838,-2.163188934326172,10.940375328063965,1.0241646766662598
1744304533.838,-2.263690948486328,10.667584419250488,1.3831008672714233
1744304533.838,-2.4264087677001953,10.308648109436035,1.2825987339019775
1744304533.838,-2.565197467803955,9.935354232788086,1.6846072673797607
1744304533.838,-2.5173392295837402,9.451987266540527,1.5888910293579102
1744304533.838,-2.292405843734741,9.054763793945312,1.1677391529083252
1744304533.838,-2.0961875915527344,8.542681694030762,1.622391700744629
1744304533.838,-1.876039981842041,8.164602279663086,1.689393162727356
1744304533.913,-1.9765421152114868,7.958812236785889,1.3400285243988037
1744304533.913,-2.014828681945801,7.681234836578369,1.229954719543457
1744304533.913,-1.995685338973999,7.499373912811279,1.3783150911331177
1744304533.913,-1.770751953125,7.4228010177612305,1.4979604482650757
1744304533.913,-1.7851094007492065,7.3605852127075195,1.3208853006362915
1744304533.913,-1.464459776878357,7.4228010177612305,1.5362470149993896
1744304533.913,-1.5410327911376953,7.394085884094238,1.454888105392456
1744304533.913,-1.742037057876587,7.312726974487305,1.6941789388656616
1744304533.987,-1.9478272199630737,7.173938274383545,1.6654640436172485
1744304533.987,-2.134474039077759,7.159581184387207,1.622391700744629
1744304533.987,-2.325906753540039,7.006434917449951,1.8281817436218262
1744304533.987,-2.373764753341675,7.063864707946777,1.995685338973999
1744304533.987,-2.488624334335327,7.288797855377197,1.9334697723388672
1744304533.987,-2.2589051723480225,7.480230808258057,1.9621846675872803
1744304533.987,-2.1105449199676514,7.494588375091553,1.9430413246154785
1744304533.987,-1.8664683103561401,7.485016345977783,2.0483293533325195
1744304534.061,-1.5888910293579102,7.547232151031494,2.024400234222412
1744304534.061,-1.387886643409729,7.566375255584717,1.9382555484771729
1744304534.061,-1.296956181526184,7.532874584197998,1.809038519859314
1744304534.061,-1.201239824295044,7.719521522521973,1.6558923721313477
1744304534.061,-1.296956181526184,8.035385131835938,1.5936768054962158
1744304534.061,-1.3783150911331177,8.566611289978027,1.718108057975769
1744304534.061,-1.7851094007492065,8.872902870178223,1.8521108627319336
1744304534.061,-1.8664683103561401,9.298840522766113,2.148831367492676
1744304534.135,-1.837753415107727,9.648205757141113,2.28283429145813
1744304534.135,-1.8138242959976196,10.16507339477539,2.3163349628448486
1744304534.135,-1.8425391912460327,10.60058307647705,2.5029819011688232
1744304534.135,-2.010042905807495,11.074378967285156,2.732701063156128
1744304534.135,-2.024400234222412,11.409385681152344,3.1012089252471924
1744304534.135,-2.024400234222412,11.768321990966797,3.1586387157440186
1744304534.135,-2.158403158187866,12.050684928894043,2.9911351203918457
1744304534.135,-2.1392598152160645,12.136829376220703,2.924133777618408
1744304534.209,-1.8808257579803467,12.098543167114258,3.4266443252563477
1744304534.209,-1.7037506103515625,12.002826690673828,3.1012089252471924
1744304534.209,-1.5553902387619019,11.887967109680176,2.881061315536499
1744304534.209,-1.5745335817337036,11.663034439086914,3.350071430206299
1744304534.209,-1.5697476863861084,11.514674186706543,3.316570520401001
1744304534.209,-1.7611804008483887,11.179666519165039,3.1251380443573
1744304534.209,-1.5793193578720093,10.839873313903809,3.062922477722168
1744304534.209,-1.4309589862823486,10.44265079498291,3.134709596633911
1744304534.284,-1.3208853006362915,10.19857406616211,3.1012089252471924
1744304534.284,-1.1868823766708374,9.868352890014648,2.9911351203918457
1744304534.284,-1.072022795677185,9.629061698913574,2.833203077316284
1744304534.284,-0.7753022313117981,10.768086433410645,2.4981961250305176
1744304534.284,-0.8710185289382935,12.342619895935059,1.8042527437210083
1744304534.284,-0.7848738431930542,11.902324676513672,3.589362144470215
1744304534.284,-0.8423036336898804,12.02196979522705,2.3450498580932617
1744304534.284,-0.8088029623031616,11.816180229187012,1.8281817436218262
1744304534.358,-0.9428057670593262,11.60560417175293,1.454888105392456
1744304534.358,-0.9380199909210205,11.23231029510498,1.0528795719146729
1744304534.358,-0.7753022313117981,9.964069366455078,1.2634555101394653
1744304534.358,-0.382865309715271,8.638398170471191,1.296956181526184
1744304534.358,-0.01914326474070549,7.489802360534668,0.9906639456748962
1744304534.358,0.3206496834754944,6.743215084075928,0.30629223585128784
1744304534.358,0.6221560835838318,6.255061626434326,-0.14836029708385468
1744304534.358,0.8853759765625,6.274205207824707,-0.47858160734176636
1744304534.432,0.9571632146835327,6.99686336517334,-0.727444052696228
1744304534.432,0.8614469170570374,8.202888488769531,-0.41636601090431213
1744304534.432,0.4211518168449402,9.093050956726074,-0.014357448555529118
1744304534.432,0.05742979422211647,9.590775489807129,0.2919347882270813
