                                                                                AngularVelocity                                                                 10.04.2519.43.20104 
Timestamp,GyroX,GyroY,GyroZ
1744304518.912,-3.5,-9.380000114440918,13.579999923706055
1744304518.912,-6.369999885559082,-11.34000015258789,12.8100004196167
1744304518.912,-12.460000038146973,-12.670000076293945,11.199999809265137
1744304518.912,-24.5,-16.799999237060547,9.239999771118164
1744304518.912,-24.5,-18.34000015258789,6.720000267028809
1744304518.912,-10.220000267028809,-19.670000076293945,5.320000171661377
1744304518.912,-0.2800000011920929,-26.389999389648438,5.53000020980835
1744304518.912,-1.75,-32.27000045776367,5.809999942779541
1744304518.986,-3.7100000381469727,-35.06999969482422,4.760000228881836
1744304518.986,-2.870000123977661,-31.010000228881836,3.2899999618530273
1744304518.986,-5.389999866485596,-24.010000228881836,1.6100000143051147
1744304518.986,-8.680000305175781,-17.989999771118164,0.2800000011920929
1744304518.986,-11.6899995803833,-13.15999984741211,0.21000000834465027
1744304518.986,-16.520000457763672,-8.329999923706055,1.0499999523162842
1744304518.986,-19.739999771118164,-3.3600001335144043,2.0999999046325684
1744304518.986,-19.46000099182129,1.190000057220459,2.7300000190734863
1744304519.06,-14.5600004196167,6.510000228881836,4.199999809265137
1744304519.06,-6.019999980926514,14.770000457763672,5.670000076293945
1744304519.06,-4.900000095367432,18.479999542236328,6.579999923706055
1744304519.06,-3.9200000762939453,15.819999694824219,7.559999942779541
1744304519.06,-0.42000001668930054,11.899999618530273,9.029999732971191
1744304519.06,3.2899999618530273,7.070000171661377,10.220000267028809
1744304519.06,10.149999618530273,3.8499999046325684,11.899999618530273
1744304519.06,16.520000457763672,3.5,13.020000457763672
1744304519.134,18.1299991607666,7.349999904632568,13.020000457763672
1744304519.134,20.719999313354492,11.0600004196167,10.359999656677246
1744304519.134,21.06999969482422,13.579999923706055,5.320000171661377
1744304519.134,21.280000686645508,15.329999923706055,-0.49000000953674316
1744304519.134,22.540000915527344,16.239999771118164,-6.369999885559082
1744304519.134,8.680000305175781,14.84000015258789,-10.430000305175781
1744304519.134,1.8200000524520874,13.720000267028809,-12.529999732971191
1744304519.134,0.7699999809265137,13.15999984741211,-12.880000114440918
1744304519.209,-1.2599999904632568,9.449999809265137,-10.710000038146973
1744304519.209,-2.240000009536743,3.5,-7.210000038146973
1744304519.209,-3.2200000286102295,-1.8200000524520874,-4.059999942779541
1744304519.209,-3.0799999237060547,-4.690000057220459,-1.9600000381469727
1744304519.209,-0.3499999940395355,-5.320000171661377,-0.7699999809265137
1744304519.209,-1.0499999523162842,-6.789999961853027,0.3499999940395355
1744304519.209,-1.190000057220459,-8.819999694824219,1.0499999523162842
1744304519.209,0.9800000190734863,-10.289999961853027,0.699999988079071
1744304519.283,1.5399999618530273,-11.480000495910645,0
1744304519.283,4.130000114440918,-12.949999809265137,-0.9100000262260437
1744304519.283,5.949999809265137,-12.880000114440918,-2.450000047683716
1744304519.283,4.340000152587891,-10.149999618530273,-4.829999923706055
1744304519.283,1.8899999856948853,-9.3100004196167,-7
1744304519.283,3.7100000381469727,-9.9399995803833,-8.470000267028809
1744304519.283,6.019999980926514,-11.270000457763672,-9.449999809265137
1744304519.283,6.650000095367432,-12.8100004196167,-9.380000114440918
1744304519.357,7.840000152587891,-13.649999618530273,-7.980000019073486
1744304519.357,8.75,-13.15999984741211,-6.510000228881836
1744304519.357,5.880000114440918,-11.619999885559082,-5.460000038146973
1744304519.357,0.3499999940395355,-9.730000495910645,-4.900000095367432
1744304519.357,-1.190000057220459,-7.840000152587891,-5.460000038146973
1744304519.357,-2.799999952316284,-6.720000267028809,-7.630000114440918
1744304519.357,-5.880000114440918,-6.159999847412109,-9.59000015258789
1744304519.357,-7.909999847412109,-7.909999847412109,-10.989999771118164
1744304519.431,-7.559999942779541,-9.9399995803833,-11.829999923706055
1744304519.431,-9.730000495910645,-12.109999656677246,-11.130000114440918
1744304519.431,-12.109999656677246,-14.90999984741211,-9.730000495910645
1744304519.431,-14.90999984741211,-18.899999618530273,-8.470000267028809
1744304519.431,-22.469999313354492,-24.43000030517578,-7.28000020980835
1744304519.431,-28.90999984741211,-30.799999237060547,-5.880000114440918
1744304519.431,-35.97999954223633,-36.540000915527344,-4.130000114440918
1744304519.431,-41.439998626708984,-39.130001068115234,-3.3600001335144043
1744304519.505,-39.47999954223633,-40.31999969482422,-3.9200000762939453
1744304519.505,-33.529998779296875,-40.95000076293945,-4.130000114440918
1744304519.505,-31.079999923706055,-38.63999938964844,-3.8499999046325684
1744304519.505,-25.899999618530273,-36.470001220703125,-6.510000228881836
1744304519.505,-20.440000534057617,-31.5,-11.480000495910645
1744304519.505,-15.190000534057617,-24.290000915527344,-18.899999618530273
1744304519.505,-7.28000020980835,-19.46000099182129,-26.739999771118164
1744304519.505,-1.4700000286102295,-19.670000076293945,-31.5
1744304519.58,5.670000076293945,-20.299999237060547,-32.7599983215332
1744304519.58,18.969999313354492,-16.450000762939453,-31.079999923706055
1744304519.58,21.90999984741211,-16.170000076293945,-26.670000076293945
1744304519.58,-2.0999999046325684,-21.21000099182129,-18.270000457763672
1744304519.58,-8.539999961853027,-25.760000228881836,-9.800000190734863
1744304519.58,-2.5199999809265137,-28.84000015258789,-2.5899999141693115
1744304519.58,4.409999847412109,-34.93000030517578,4.480000019073486
1744304519.58,10.989999771118164,-38.43000030517578,10.640000343322754
1744304519.654,15.75,-36.81999969482422,12.600000381469727
1744304519.654,17.219999313354492,-31.989999771118164,10.149999618530273
1744304519.654,23.450000762939453,-27.440000534057617,5.25
1744304519.654,29.190000534057617,-22.260000228881836,-1.0499999523162842
1744304519.654,30.65999984741211,-18.40999984741211,-5.670000076293945
1744304519.654,27.440000534057617,-15.399999618530273,-8.819999694824219
1744304519.654,23.8700008392334,-11.970000267028809,-11.199999809265137
1744304519.654,18.40999984741211,-9.170000076293945,-12.390000343322754
1744304519.728,12.949999809265137,-6.230000019073486,-12.460000038146973
1744304519.728,10.640000343322754,-3.569999933242798,-11.199999809265137
1744304519.728,10.5,-1.9600000381469727,-8.75
1744304519.728,10.569999694824219,-1.5399999618530273,-5.949999809265137
1744304519.728,10.850000381469727,-1.9600000381469727,-3.0799999237060547
1744304519.728,13.020000457763672,-2.6600000858306885,-0.14000000059604645
1744304519.728,17.639999389648438,-2.450000047683716,1.8899999856948853
1744304519.728,23.100000381469727,-0.3499999940395355,1.8200000524520874
1744304519.802,26.809999465942383,1.2599999904632568,0.49000000953674316
1744304519.802,28.489999771118164,3.3600001335144043,-1.0499999523162842
1744304519.802,26.950000762939453,6.019999980926514,-2.0299999713897705
1744304519.802,24.5,9.170000076293945,-2.309999942779541
1744304519.802,21.489999771118164,10.149999618530273,-1.3300000429153442
1744304519.802,19.389999389648438,10.920000076293945,0.21000000834465027
1744304519.802,20.09000015258789,11.6899995803833,1.3300000429153442
1744304519.802,20.020000457763672,12.109999656677246,2.7300000190734863
1744304519.876,19.040000915527344,12.739999771118164,4.409999847412109
1744304519.876,19.18000030517578,13.789999961853027,5.670000076293945
1744304519.876,18.899999618530273,14.90999984741211,6.230000019073486
1744304519.876,19.18000030517578,16.940000534057617,6.300000190734863
1744304519.876,20.93000030517578,19.600000381469727,5.53000020980835
1744304519.876,23.170000076293945,21.90999984741211,4.199999809265137
1744304519.876,22.81999969482422,24.43000030517578,3.0799999237060547
1744304519.876,22.81999969482422,26.739999771118164,2.5199999809265137
1744304519.951,24.079999923706055,28.630001068115234,2.309999942779541
1744304519.951,25.059999465942383,28.84000015258789,2.380000114440918
1744304519.951,25.200000762939453,29.329999923706055,2.6600000858306885
1744304519.951,23.450000762939453,28.979999542236328,3.2899999618530273
1744304519.951,20.790000915527344,26.530000686645508,4.199999809265137
1744304519.951,19.31999969482422,24.850000381469727,4.96999979019165
1744304519.951,19.739999771118164,23.100000381469727,6.230000019073486
1744304519.951,19.110000610351562,22.81999969482422,7.699999809265137
1744304520.025,17.079999923706055,24.079999923706055,9.380000114440918
1744304520.025,14.699999809265137,25.760000228881836,11.0600004196167
1744304520.025,11.270000457763672,26.040000915527344,12.529999732971191
1744304520.025,12.390000343322754,26.389999389648438,13.369999885559082
1744304520.025,11.130000114440918,25.969999313354492,13.789999961853027
1744304520.025,9.520000457763672,24.56999969482422,13.789999961853027
1744304520.025,10.5,23.729999542236328,13.930000305175781
1744304520.025,8.329999923706055,22.75,14.069999694824219
1744304520.099,7.210000038146973,21.559999465942383,14.210000038146973
1744304520.099,13.440000534057617,25.40999984741211,13.720000267028809
1744304520.099,14.210000038146973,26.950000762939453,13.020000457763672
1744304520.099,4.269999980926514,20.860000610351562,12.600000381469727
1744304520.099,8.399999618530273,14.210000038146973,12.039999961853027
1744304520.099,15.75,10.430000305175781,11.6899995803833
1744304520.099,18.479999542236328,9.170000076293945,11.550000190734863
1744304520.099,22.610000610351562,13.15999984741211,11.34000015258789
1744304520.173,22.1200008392334,20.15999984741211,11.550000190734863
1744304520.173,9.239999771118164,25.829999923706055,12.25
1744304520.173,3.1500000953674316,30.170000076293945,12.880000114440918
1744304520.173,-0.8400000333786011,31.850000381469727,13.369999885559082
1744304520.173,-6.510000228881836,30.520000457763672,14.420000076293945
1744304520.173,-9.239999771118164,28.139999389648438,15.890000343322754
1744304520.173,-10.850000381469727,27.15999984741211,17.149999618530273
1744304520.173,-11.199999809265137,29.329999923706055,17.56999969482422
1744304520.248,-10.779999732971191,31.290000915527344,17.639999389648438
1744304520.248,-10.850000381469727,33.040000915527344,17.71000099182129
1744304520.248,-11.0600004196167,33.11000061035156,17.71000099182129
1744304520.248,-9.520000457763672,32.27000045776367,17.56999969482422
1744304520.248,-11.0600004196167,30.940000534057617,17.219999313354492
1744304520.248,-13.930000305175781,28.420000076293945,16.65999984741211
1744304520.248,-15.819999694824219,26.389999389648438,15.75
1744304520.248,-15.260000228881836,26.040000915527344,14.489999771118164
1744304520.322,-15.890000343322754,24.43000030517578,12.880000114440918
1744304520.322,-16.170000076293945,23.59000015258789,10.640000343322754
1744304520.322,-15.119999885559082,23.170000076293945,8.119999885559082
1744304520.322,-12.670000076293945,25.1299991607666,5.320000171661377
1744304520.322,-14.980000495910645,24.780000686645508,2.7300000190734863
1744304520.322,-21.139999389648438,22.81999969482422,1.5399999618530273
1744304520.322,-25.690000534057617,22.68000030517578,1.5399999618530273
1744304520.322,-25.549999237060547,20.860000610351562,2.799999952316284
1744304520.397,-24.56999969482422,18.1299991607666,4.96999979019165
1744304520.397,-25.34000015258789,15.190000534057617,7.139999866485596
1744304520.397,-28.559999465942383,12.109999656677246,9.170000076293945
1744304520.397,-29.75,9.520000457763672,9.800000190734863
1744304520.397,-27.510000228881836,8.75,8.680000305175781
1744304520.397,-27.790000915527344,7.769999980926514,6.369999885559082
1744304520.397,-31.5,7.840000152587891,4.409999847412109
1744304520.397,-31.780000686645508,9.869999885559082,2.870000123977661
1744304520.471,-33.67000198364258,11.550000190734863,2.380000114440918
1744304520.471,-41.22999954223633,13.15999984741211,2.940000057220459
1744304520.471,-50.119998931884766,13.930000305175781,3.990000009536743
1744304520.471,-54.459999084472656,13.789999961853027,4.619999885559082
1744304520.471,-56.630001068115234,12.460000038146973,5.039999961853027
1744304520.471,-51.72999954223633,11.760000228881836,4.690000057220459
1744304520.471,-49.560001373291016,11.619999885559082,3.7100000381469727
1744304520.471,-46.130001068115234,13.720000267028809,2.240000009536743
1744304520.545,-46.47999954223633,17.010000228881836,0.699999988079071
1744304520.545,-47.25,20.229999542236328,-1.1200000047683716
1744304520.545,-43.81999969482422,21.700000762939453,-3.0799999237060547
1744304520.545,-39.689998626708984,21.420000076293945,-4.96999979019165
1744304520.545,-37.099998474121094,21.420000076293945,-5.949999809265137
1744304520.545,-35.90999984741211,23.239999771118164,-5.740000247955322
1744304520.545,-33.880001068115234,25.549999237060547,-4.829999923706055
1744304520.545,-30.520000457763672,24.989999771118164,-4.199999809265137
1744304520.62,-26.25,26.739999771118164,-3.5
1744304520.62,-18.479999542236328,30.729999542236328,-3.1500000953674316
1744304520.62,-18.34000015258789,26.18000030517578,-3.1500000953674316
1744304520.62,-20.860000610351562,20.649999618530273,-2.1700000762939453
1744304520.62,-15.960000038146973,13.230000495910645,-0.7699999809265137
1744304520.62,-13.930000305175781,6.650000095367432,0.42000001668930054
1744304520.62,-10.920000076293945,2.240000009536743,1.190000057220459
1744304520.62,-7.980000019073486,2.5199999809265137,1.1200000047683716
1744304520.694,-6.230000019073486,6.230000019073486,-0.14000000059604645
1744304520.694,-7.070000171661377,9.9399995803833,-1.4700000286102295
1744304520.694,-3.430000066757202,13.789999961853027,-2.940000057220459
1744304520.694,1.75,14.069999694824219,-3.8499999046325684
1744304520.694,1.6100000143051147,13.020000457763672,-4.059999942779541
1744304520.694,2.1700000762939453,11.970000267028809,-4.409999847412109
1744304520.694,4.900000095367432,11.6899995803833,-4.96999979019165
1744304520.694,6.019999980926514,11.6899995803833,-5.460000038146973
1744304520.768,6.510000228881836,12.25,-5.809999942779541
1744304520.768,8.75,12.460000038146973,-6.230000019073486
1744304520.768,9.9399995803833,11.550000190734863,-6.579999923706055
1744304520.768,9.59000015258789,9.800000190734863,-6.929999828338623
1744304520.768,10.149999618530273,6.019999980926514,-6.860000133514404
1744304520.768,10.430000305175781,2.309999942779541,-6.789999961853027
1744304520.768,10.430000305175781,-1.1200000047683716,-6.720000267028809
1744304520.768,9.9399995803833,-3.7799999713897705,-7.490000247955322
1744304520.842,10.010000228881836,-5.25,-8.960000038146973
1744304520.842,11.270000457763672,-5.460000038146973,-10.5
1744304520.842,13.440000534057617,-4.199999809265137,-11.970000267028809
1744304520.842,10.710000038146973,-2.5899999141693115,-13.230000495910645
1744304520.842,10.220000267028809,-4.130000114440918,-13.020000457763672
1744304520.842,12.8100004196167,-6.860000133514404,-12.670000076293945
1744304520.842,13.859999656677246,-8.470000267028809,-12.390000343322754
1744304520.842,12.390000343322754,-11.760000228881836,-11.899999618530273
1744304520.917,9.869999885559082,-14.069999694824219,-10.779999732971191
1744304520.917,10.920000076293945,-15.819999694824219,-9.730000495910645
1744304520.917,9.800000190734863,-16.170000076293945,-8.609999656677246
1744304520.917,7.909999847412109,-16.8700008392334,-7.420000076293945
1744304520.917,7.070000171661377,-18.34000015258789,-6.230000019073486
1744304520.917,4.269999980926514,-20.299999237060547,-5.179999828338623
1744304520.917,1.3300000429153442,-22.260000228881836,-4.550000190734863
1744304520.917,0.07000000029802322,-23.520000457763672,-3.9200000762939453
1744304520.991,-0.699999988079071,-22.399999618530273,-3.9200000762939453
1744304520.991,2.6600000858306885,-19.46000099182129,-4.900000095367432
1744304520.991,5.179999828338623,-14.90999984741211,-7
1744304520.991,-1.3300000429153442,-9.869999885559082,-8.890000343322754
1744304520.991,-5.740000247955322,-8.819999694824219,-10.5
1744304520.991,-2.0999999046325684,-8.539999961853027,-11.34000015258789
1744304520.991,1.8200000524520874,-8.329999923706055,-10.5
1744304520.991,3.7799999713897705,-10.850000381469727,-7.139999866485596
1744304521.065,-0.3499999940395355,-15.050000190734863,-3.640000104904175
1744304521.065,-6.369999885559082,-22.610000610351562,-0.2800000011920929
1744304521.065,-8.680000305175781,-30.8700008392334,1.8200000524520874
1744304521.065,-9.380000114440918,-37.72999954223633,2.1700000762939453
1744304521.065,-9.869999885559082,-39.900001525878906,1.190000057220459
1744304521.065,-12.8100004196167,-38.36000061035156,-1.75
1744304521.065,-16.59000015258789,-36.2599983215332,-5.949999809265137
1744304521.065,-18.34000015258789,-34.15999984741211,-11.270000457763672
1744304521.139,-10.359999656677246,-26.18000030517578,-16.450000762939453
1744304521.139,-1.75,-19.739999771118164,-21
1744304521.139,-18.690000534057617,-18.760000228881836,-25.1299991607666
1744304521.139,-19.040000915527344,-22.190000534057617,-27.510000228881836
1744304521.139,-2.0999999046325684,-24.5,-27.93000030517578
1744304521.139,10.640000343322754,-31.290000915527344,-24.5
1744304521.139,12.949999809265137,-37.45000076293945,-17.219999313354492
1744304521.139,8.260000228881836,-34.86000061035156,-9.380000114440918
1744304521.213,4.340000152587891,-29.889999389648438,-3.8499999046325684
1744304521.213,-0.7699999809265137,-26.880001068115234,0.2800000011920929
1744304521.213,-9.730000495910645,-27.15999984741211,3.8499999046325684
1744304521.213,-12.109999656677246,-31.149999618530273,5.389999866485596
1744304521.213,-13.020000457763672,-32.54999923706055,3.5
1744304521.213,-10.989999771118164,-32.27000045776367,-1.75
1744304521.213,-14.770000457763672,-28.979999542236328,-7.630000114440918
1744304521.213,-22.81999969482422,-25.40999984741211,-9.869999885559082
1744304521.288,-30.030000686645508,-22.96000099182129,-8.329999923706055
1744304521.288,-23.3799991607666,-19.670000076293945,-8.680000305175781
1744304521.288,-9.100000381469727,-16.170000076293945,-13.230000495910645
1744304521.288,-3.7799999713897705,-12.460000038146973,-17.989999771118164
1744304521.288,3.2899999618530273,-12.739999771118164,-20.510000228881836
1744304521.288,9.170000076293945,-16.100000381469727,-19.25
1744304521.288,8.75,-19.530000686645508,-14.489999771118164
1744304521.288,5.460000038146973,-22.75,-7.490000247955322
1744304521.362,4.269999980926514,-23.030000686645508,-1.2599999904632568
1744304521.362,4.340000152587891,-22.329999923706055,3.009999990463257
1744304521.362,0.21000000834465027,-18.969999313354492,5.039999961853027
1744304521.362,-4.900000095367432,-15.819999694824219,3.5
1744304521.362,-4.059999942779541,-12.390000343322754,0.21000000834465027
1744304521.362,-0.42000001668930054,-9.100000381469727,-4.199999809265137
1744304521.362,0.9100000262260437,-6.720000267028809,-8.1899995803833
1744304521.362,-1.1200000047683716,-3.2899999618530273,-9.520000457763672
1744304521.436,-2.940000057220459,-1.6800000667572021,-9.380000114440918
1744304521.436,-2.450000047683716,-2.450000047683716,-8.119999885559082
1744304521.436,3.8499999046325684,-2.0999999046325684,-6.369999885559082
1744304521.436,15.260000228881836,-1.6100000143051147,-3.990000009536743
1744304521.436,13.510000228881836,-0.21000000834465027,-0.5600000023841858
1744304521.436,8.119999885559082,2.1700000762939453,1.5399999618530273
1744304521.436,0.8400000333786011,2.0299999713897705,1.6100000143051147
1744304521.436,1.6100000143051147,2.0999999046325684,-0.14000000059604645
1744304521.51,-2.799999952316284,3.9200000762939453,-1.3300000429153442
1744304521.51,-15.539999961853027,5.670000076293945,-0.49000000953674316
1744304521.51,-14.84000015258789,7.349999904632568,0.9800000190734863
1744304521.51,-13.440000534057617,9.029999732971191,2.6600000858306885
1744304521.51,-12.460000038146973,11.130000114440918,3.7100000381469727
1744304521.51,0.42000001668930054,13.15999984741211,3.009999990463257
1744304521.51,-2.6600000858306885,13.510000228881836,2.450000047683716
1744304521.51,-12.390000343322754,12.529999732971191,4.340000152587891
1744304521.584,-13.789999961853027,13.859999656677246,5.389999866485596
1744304521.584,-12.8100004196167,12.390000343322754,6.369999885559082
1744304521.584,-18.969999313354492,13.789999961853027,8.470000267028809
1744304521.584,-21.770000457763672,14.90999984741211,9.65999984741211
1744304521.584,-23.729999542236328,10.289999961853027,9.380000114440918
1744304521.584,-10.149999618530273,12.460000038146973,7
1744304521.584,1.6800000667572021,17.639999389648438,5.460000038146973
1744304521.584,-19.739999771118164,12.180000305175781,8.260000228881836
1744304521.659,-25.1299991607666,13.369999885559082,11.0600004196167
1744304521.659,-8.680000305175781,12.180000305175781,10.640000343322754
1744304521.659,1.6800000667572021,2.0299999713897705,8.680000305175781
1744304521.659,6.369999885559082,-0.7699999809265137,7.980000019073486
1744304521.659,15.819999694824219,-1.6100000143051147,5.949999809265137
1744304521.659,15.050000190734863,1.75,3.1500000953674316
1744304521.659,19.600000381469727,8.329999923706055,3.3600001335144043
1744304521.659,20.020000457763672,17.71000099182129,6.159999847412109
1744304521.733,15.819999694824219,26.389999389648438,8.680000305175781
1744304521.733,4.900000095367432,32.40999984741211,9.380000114440918
1744304521.733,-8.050000190734863,35.84000015258789,9.730000495910645
1744304521.733,-9.029999732971191,37.72999954223633,8.960000038146973
1744304521.733,-7.769999980926514,40.599998474121094,7.630000114440918
1744304521.733,-16.309999465942383,40.529998779296875,7.909999847412109
1744304521.733,-10.779999732971191,37.65999984741211,8.329999923706055
1744304521.733,-7.559999942779541,33.599998474121094,7.840000152587891
1744304521.807,-14.980000495910645,29.329999923706055,8.1899995803833
1744304521.807,-18.829999923706055,22.81999969482422,10.079999923706055
1744304521.807,-1.8200000524520874,16.170000076293945,12.109999656677246
1744304521.807,15.260000228881836,9.449999809265137,14.84000015258789
1744304521.807,17.360000610351562,7.349999904632568,17.290000915527344
1744304521.807,9.520000457763672,6.789999961853027,18.479999542236328
1744304521.807,2.799999952316284,8.329999923706055,18.1299991607666
1744304521.807,0.14000000059604645,9.520000457763672,16.450000762939453
1744304521.881,0.7699999809265137,11.619999885559082,14.630000114440918
1744304521.881,-1.5399999618530273,11.480000495910645,13.15999984741211
1744304521.881,0.42000001668930054,14.699999809265137,11.270000457763672
1744304521.881,-2.380000114440918,13.440000534057617,9.65999984741211
1744304521.881,-13.579999923706055,9.449999809265137,10.149999618530273
1744304521.881,-17.290000915527344,8.470000267028809,10.289999961853027
1744304521.881,-12.670000076293945,8.329999923706055,7.28000020980835
1744304521.881,-17.149999618530273,9.449999809265137,4.760000228881836
1744304521.956,-16.450000762939453,9.800000190734863,1.8899999856948853
1744304521.956,-10.149999618530273,7.559999942779541,-0.42000001668930054
1744304521.956,-12.670000076293945,6.230000019073486,-0.5600000023841858
1744304521.956,-17.56999969482422,5.53000020980835,0.2800000011920929
1744304521.956,-11.970000267028809,4.199999809265137,1.5399999618530273
1744304521.956,-10.430000305175781,3.640000104904175,3.2899999618530273
1744304521.956,-12.670000076293945,2.240000009536743,4.900000095367432
1744304521.956,-14.210000038146973,-0.42000001668930054,5.949999809265137
1744304522.031,-15.329999923706055,-1.190000057220459,5.740000247955322
1744304522.031,-12.039999961853027,-1.3300000429153442,4.269999980926514
1744304522.031,-8.399999618530273,-1.0499999523162842,2.450000047683716
1744304522.031,-6.579999923706055,-0.49000000953674316,0.2800000011920929
1744304522.031,-8.119999885559082,-3.009999990463257,-2.1700000762939453
1744304522.031,-8.960000038146973,-5.599999904632568,-4.409999847412109
1744304522.031,-7.559999942779541,-7.349999904632568,-6.019999980926514
1744304522.031,-6.789999961853027,-6.929999828338623,-7.490000247955322
1744304522.105,-4.900000095367432,-4.900000095367432,-7.210000038146973
1744304522.105,-0.14000000059604645,0.699999988079071,-6.300000190734863
1744304522.105,1.2599999904632568,5.25,-5.670000076293945
1744304522.105,-2.450000047683716,5.460000038146973,-4.829999923706055
1744304522.105,-6.720000267028809,5.110000133514404,-4.550000190734863
1744304522.105,-7.630000114440918,4.059999942779541,-4.619999885559082
1744304522.105,-7.559999942779541,0,-4.059999942779541
1744304522.105,-5.740000247955322,-1.8899999856948853,-3.430000066757202
1744304522.179,1.2599999904632568,1.8200000524520874,-3.2200000286102295
1744304522.179,5.880000114440918,-1.8899999856948853,-4.059999942779541
1744304522.179,0.8400000333786011,-8.890000343322754,-4.760000228881836
1744304522.179,3.1500000953674316,-13.510000228881836,-3.640000104904175
1744304522.179,10.079999923706055,-17.010000228881836,-3.640000104904175
1744304522.179,15.960000038146973,-18.969999313354492,-5.179999828338623
1744304522.179,18.690000534057617,-15.190000534057617,-7.980000019073486
1744304522.179,15.609999656677246,-10.220000267028809,-12.390000343322754
1744304522.253,10.640000343322754,-6.090000152587891,-15.960000038146973
1744304522.253,7.769999980926514,-2.940000057220459,-16.100000381469727
1744304522.253,8.960000038146973,1.3300000429153442,-14.90999984741211
1744304522.253,13.859999656677246,3.3600001335144043,-15.680000305175781
1744304522.253,20.579999923706055,0.2800000011920929,-19.389999389648438
1744304522.253,21.350000381469727,-0.2800000011920929,-21.84000015258789
1744304522.253,18.1299991607666,-0.21000000834465027,-20.09000015258789
1744304522.253,17.360000610351562,-3.0799999237060547,-16.100000381469727
1744304522.328,15.119999885559082,-3.7799999713897705,-10.569999694824219
1744304522.328,10.710000038146973,-1.6800000667572021,-5.179999828338623
1744304522.328,2.799999952316284,1.3300000429153442,-1.3300000429153442
1744304522.328,-5.53000020980835,4.96999979019165,0.49000000953674316
1744304522.328,-6.019999980926514,7.490000247955322,-0.3499999940395355
1744304522.328,-5.740000247955322,5.809999942779541,-2.5899999141693115
1744304522.328,-5.53000020980835,2.0999999046325684,-3.569999933242798
1744304522.328,-0.2800000011920929,-0.9800000190734863,-5.53000020980835
1744304522.402,1.0499999523162842,-2.870000123977661,-6.230000019073486
1744304522.402,-1.8899999856948853,-3.640000104904175,-3.7100000381469727
1744304522.402,-5.25,-2.450000047683716,-0.5600000023841858
1744304522.402,-11.970000267028809,1.3300000429153442,5.25
1744304522.402,-16.729999542236328,3.1500000953674316,9.869999885559082
1744304522.402,-14.140000343322754,3.0799999237060547,8.890000343322754
1744304522.402,-9.100000381469727,0.2800000011920929,6.300000190734863
1744304522.402,-10.149999618530273,-2.940000057220459,5.389999866485596
1744304522.476,-9.730000495910645,-6.650000095367432,5.670000076293945
1744304522.476,-6.440000057220459,-10.430000305175781,5.599999904632568
1744304522.476,-5.389999866485596,-12.670000076293945,7.699999809265137
1744304522.476,-5.389999866485596,-11.0600004196167,11.760000228881836
1744304522.476,-5.25,-6.860000133514404,14.069999694824219
1744304522.476,-2.5199999809265137,-1.2599999904632568,10.989999771118164
1744304522.476,0.2800000011920929,4.340000152587891,5.110000133514404
1744304522.476,0.07000000029802322,8.050000190734863,-1.190000057220459
1744304522.55,0.42000001668930054,9.170000076293945,-6.300000190734863
1744304522.55,2.870000123977661,7.28000020980835,-9.9399995803833
1744304522.55,5.320000171661377,6.159999847412109,-11.6899995803833
1744304522.55,5.25,6.579999923706055,-10.079999923706055
1744304522.55,1.1200000047683716,9.239999771118164,-7.769999980926514
1744304522.55,-1.1200000047683716,11.619999885559082,-6.789999961853027
1744304522.55,0.8400000333786011,12.880000114440918,-6.019999980926514
1744304522.55,3.3600001335144043,13.720000267028809,-4.760000228881836
1744304522.625,4.690000057220459,16.450000762939453,-2.799999952316284
1744304522.625,6.369999885559082,19.670000076293945,-0.42000001668930054
1744304522.625,6.860000133514404,20.649999618530273,1.3300000429153442
1744304522.625,4.690000057220459,20.229999542236328,1.6100000143051147
1744304522.625,0.8400000333786011,20.020000457763672,0.8400000333786011
1744304522.625,-4.199999809265137,19.040000915527344,0.49000000953674316
1744304522.625,-4.550000190734863,20.09000015258789,0.2800000011920929
1744304522.625,-0.699999988079071,21.559999465942383,-2.0299999713897705
1744304522.699,0.21000000834465027,19.530000686645508,-5.880000114440918
1744304522.699,-0.14000000059604645,13.300000190734863,-7.699999809265137
1744304522.699,2.5899999141693115,7.699999809265137,-6.929999828338623
1744304522.699,5.179999828338623,9.239999771118164,-2.940000057220459
1744304522.699,0.6299999952316284,10.430000305175781,2.450000047683716
1744304522.699,-2.380000114440918,10.710000038146973,8.260000228881836
1744304522.699,-0.5600000023841858,13.15999984741211,11.130000114440918
1744304522.699,-1.8200000524520874,15.260000228881836,9.380000114440918
1744304522.773,-3.7799999713897705,15.680000305175781,5.039999961853027
1744304522.773,0.21000000834465027,15.050000190734863,0.699999988079071
1744304522.773,5.25,12.319999694824219,-2.450000047683716
1744304522.773,4.619999885559082,8.470000267028809,-3.8499999046325684
1744304522.773,3.1500000953674316,5.670000076293945,-2.0999999046325684
1744304522.773,0.9800000190734863,3.2899999618530273,1.2599999904632568
1744304522.773,-0.699999988079071,2.450000047683716,3.2200000286102295
1744304522.773,-2.450000047683716,1.190000057220459,3.640000104904175
1744304522.847,-2.7300000190734863,-0.21000000834465027,2.5199999809265137
1744304522.847,-2.240000009536743,-2.0299999713897705,1.2599999904632568
1744304522.847,-2.450000047683716,-3.430000066757202,0.07000000029802322
1744304522.847,-0.9100000262260437,-5.110000133514404,-1.6800000667572021
1744304522.847,2.0999999046325684,-8.539999961853027,-4.059999942779541
1744304522.847,2.940000057220459,-11.899999618530273,-3.990000009536743
1744304522.847,1.75,-14.140000343322754,-1.9600000381469727
1744304522.847,1.9600000381469727,-14.140000343322754,-0.6299999952316284
1744304522.921,2.0999999046325684,-12.319999694824219,-0.49000000953674316
1744304522.921,0.3499999940395355,-11.199999809265137,-1.190000057220459
1744304522.921,3.569999933242798,-10.569999694824219,-2.0299999713897705
1744304522.921,9.520000457763672,-10.430000305175781,-3.3600001335144043
1744304522.921,8.470000267028809,-11.829999923706055,-4.409999847412109
1744304522.921,7.420000076293945,-11.899999618530273,-3.9200000762939453
1744304522.921,7.769999980926514,-11.619999885559082,-3.0799999237060547
1744304522.921,5.599999904632568,-12.529999732971191,-1.1200000047683716
1744304522.996,4.409999847412109,-13.789999961853027,0.6299999952316284
1744304522.996,6.159999847412109,-16.309999465942383,2.0999999046325684
1744304522.996,8.119999885559082,-14.489999771118164,2.240000009536743
1744304522.996,8.890000343322754,-14,2.1700000762939453
1744304522.996,4.480000019073486,-13.09000015258789,1.399999976158142
1744304522.996,-1.6800000667572021,-14,1.4700000286102295
1744304522.996,-2.380000114440918,-13.300000190734863,3.0799999237060547
1744304522.996,-1.1200000047683716,-11.270000457763672,3.990000009536743
1744304523.07,-1.6100000143051147,-10.5,5.740000247955322
1744304523.07,-4.199999809265137,-10.779999732971191,7.909999847412109
1744304523.07,-2.870000123977661,-9.3100004196167,8.609999656677246
1744304523.07,-0.42000001668930054,-6.720000267028809,7.699999809265137
1744304523.07,1.1200000047683716,-4.829999923706055,6.510000228881836
1744304523.07,-0.2800000011920929,-3.2200000286102295,6.230000019073486
1744304523.07,-3.569999933242798,-2.5899999141693115,6.440000057220459
1744304523.07,-7.909999847412109,-3.2899999618530273,6.579999923706055
1744304523.144,-12.8100004196167,-1.3300000429153442,6.440000057220459
1744304523.144,-9.869999885559082,-0.9100000262260437,6.159999847412109
1744304523.144,-5.740000247955322,-2.240000009536743,5.25
1744304523.144,-6.369999885559082,-3.7799999713897705,4.96999979019165
1744304523.144,-6.789999961853027,-5.039999961853027,4.340000152587891
1744304523.144,-2.799999952316284,-4.059999942779541,2.450000047683716
1744304523.144,1.8200000524520874,0.07000000029802322,1.6800000667572021
1744304523.144,-1.0499999523162842,2.0999999046325684,1.190000057220459
1744304523.218,-8.75,2.6600000858306885,1.2599999904632568
1744304523.218,-9.449999809265137,-0.7699999809265137,3.0799999237060547
1744304523.218,-7.699999809265137,-2.6600000858306885,4.760000228881836
1744304523.218,-5.670000076293945,-2.6600000858306885,6.300000190734863
1744304523.218,-2.799999952316284,-3.430000066757202,7
1744304523.218,-0.21000000834465027,-1.3300000429153442,7.490000247955322
1744304523.218,-1.3300000429153442,2.870000123977661,6.929999828338623
1744304523.218,-5.110000133514404,7,6.929999828338623
1744304523.293,-8.819999694824219,8.680000305175781,8.470000267028809
1744304523.293,-10.989999771118164,9.59000015258789,10.920000076293945
1744304523.293,-11.899999618530273,10.220000267028809,13.440000534057617
1744304523.293,-10.779999732971191,10.779999732971191,16.59000015258789
1744304523.293,-10.430000305175781,10.779999732971191,19.31999969482422
1744304523.293,-11.619999885559082,10.5,20.790000915527344
1744304523.293,-11.760000228881836,9.800000190734863,19.18000030517578
1744304523.293,-7.070000171661377,9.449999809265137,15.470000267028809
1744304523.367,-4.409999847412109,9.869999885559082,10.920000076293945
1744304523.367,-4.059999942779541,7.769999980926514,7.909999847412109
1744304523.367,-3.990000009536743,5.949999809265137,5.389999866485596
1744304523.367,-5.179999828338623,3.3600001335144043,4.130000114440918
1744304523.367,-7.909999847412109,1.0499999523162842,4.480000019073486
1744304523.367,-10.079999923706055,-0.49000000953674316,5.25
1744304523.367,-12.039999961853027,-0.49000000953674316,6.230000019073486
1744304523.367,-12.600000381469727,0.9800000190734863,7.28000020980835
1744304523.441,-12.460000038146973,0.49000000953674316,7.630000114440918
1744304523.441,-10.079999923706055,0.07000000029802322,7.559999942779541
1744304523.441,-7.699999809265137,1.190000057220459,7
1744304523.441,-7.980000019073486,0.8400000333786011,6.789999961853027
1744304523.441,-7.630000114440918,1.2599999904632568,7.840000152587891
1744304523.441,-11.0600004196167,3.0799999237060547,10.640000343322754
1744304523.441,-12.529999732971191,3.569999933242798,12.109999656677246
1744304523.441,-13.300000190734863,3.3600001335144043,12.600000381469727
1744304523.515,-12.529999732971191,3.009999990463257,12.180000305175781
1744304523.515,-9.520000457763672,2.940000057220459,11.270000457763672
1744304523.515,-4.409999847412109,0.7699999809265137,9.029999732971191
1744304523.515,-2.5899999141693115,-1.5399999618530273,6.650000095367432
1744304523.515,-0.2800000011920929,-2.5899999141693115,5.949999809265137
1744304523.515,1.0499999523162842,-2.799999952316284,6.860000133514404
1744304523.515,-0.9800000190734863,-3.0799999237060547,8.399999618530273
1744304523.515,-0.07000000029802322,-3.990000009536743,9.449999809265137
1744304523.59,1.1200000047683716,-4.550000190734863,8.329999923706055
1744304523.59,3.0799999237060547,-7.420000076293945,5.389999866485596
1744304523.59,5.110000133514404,-10.289999961853027,2.870000123977661
1744304523.59,8.819999694824219,-13.300000190734863,2.0299999713897705
1744304523.59,12.949999809265137,-13.15999984741211,2.380000114440918
1744304523.59,10.220000267028809,-9.100000381469727,3.3600001335144043
1744304523.59,8.539999961853027,-3.990000009536743,4.269999980926514
1744304523.59,12.670000076293945,1.6800000667572021,4.760000228881836
1744304523.665,13.649999618530273,6.019999980926514,4.550000190734863
1744304523.665,12.8100004196167,5.599999904632568,3.8499999046325684
1744304523.665,11.760000228881836,2.0999999046325684,3.569999933242798
1744304523.665,8.1899995803833,-6.159999847412109,4.199999809265137
1744304523.665,4.96999979019165,-10.079999923706055,6.090000152587891
1744304523.665,5.460000038146973,-6.579999923706055,8.890000343322754
1744304523.665,8.960000038146973,0.9100000262260437,10.920000076293945
1744304523.665,3.2899999618530273,1.0499999523162842,9.869999885559082
1744304523.739,-2.1700000762939453,-1.75,7.630000114440918
1744304523.739,-4.340000152587891,-8.539999961853027,4.550000190734863
1744304523.739,-6.300000190734863,-12.739999771118164,1.4700000286102295
1744304523.739,-6.929999828338623,-14.489999771118164,-0.14000000059604645
1744304523.739,-3.569999933242798,-10.989999771118164,-1.6800000667572021
1744304523.739,-3.430000066757202,-2.870000123977661,-3.640000104904175
1744304523.739,-5.949999809265137,1.1200000047683716,-5.039999961853027
1744304523.739,-6.369999885559082,2.5199999809265137,-6.579999923706055
1744304523.813,-5.53000020980835,1.1200000047683716,-6.929999828338623
1744304523.813,-0.9800000190734863,-2.5199999809265137,-5.880000114440918
1744304523.813,0.6299999952316284,-5.53000020980835,-3.2200000286102295
1744304523.813,-0.699999988079071,-6.090000152587891,0.2800000011920929
1744304523.813,-1.2599999904632568,-5.039999961853027,2.309999942779541
1744304523.813,-1.4700000286102295,-2.5199999809265137,2.940000057220459
1744304523.813,-3.1500000953674316,-2.0999999046325684,2.799999952316284
1744304523.813,-2.0999999046325684,-2.450000047683716,2.0299999713897705
1744304523.887,-2.6600000858306885,-3.9200000762939453,0.9800000190734863
1744304523.887,-2.5199999809265137,-8.960000038146973,-0.14000000059604645
1744304523.887,0.2800000011920929,-12.670000076293945,-1.1200000047683716
1744304523.887,-1.0499999523162842,-13.720000267028809,-1.2599999904632568
1744304523.887,-1.8200000524520874,-12.670000076293945,-2.380000114440918
1744304523.887,-2.240000009536743,-9.730000495910645,-4.059999942779541
1744304523.887,-2.380000114440918,-4.409999847412109,-5.809999942779541
1744304523.887,-3.9200000762939453,-2.0299999713897705,-7.210000038146973
1744304523.961,-3.430000066757202,-1.6100000143051147,-7.559999942779541
1744304523.961,1.5399999618530273,-1.75,-7.349999904632568
1744304523.961,3.8499999046325684,-2.7300000190734863,-6.579999923706055
1744304523.961,3.640000104904175,-4.619999885559082,-5.179999828338623
1744304523.961,2.0299999713897705,-7.070000171661377,-2.6600000858306885
1744304523.961,-1.399999976158142,-8.819999694824219,0.6299999952316284
1744304523.961,-2.870000123977661,-9.59000015258789,3.5
1744304523.961,0.2800000011920929,-9.380000114440918,4.340000152587891
1744304524.036,2.5899999141693115,-6.369999885559082,2.6600000858306885
1744304524.036,2.5899999141693115,-2.1700000762939453,-0.8400000333786011
1744304524.036,4.059999942779541,0.7699999809265137,-4.550000190734863
1744304524.036,5.460000038146973,2.450000047683716,-7.349999904632568
1744304524.036,6.440000057220459,3.7799999713897705,-8.680000305175781
1744304524.036,7.559999942779541,3.9200000762939453,-9.380000114440918
1744304524.036,8.960000038146973,3.3600001335144043,-9.730000495910645
1744304524.036,8.399999618530273,2.309999942779541,-8.329999923706055
1744304524.11,7.210000038146973,0.07000000029802322,-6.789999961853027
1744304524.11,9.3100004196167,-1.190000057220459,-6.300000190734863
1744304524.11,13.300000190734863,-1.75,-6.440000057220459
1744304524.11,15.539999961853027,-2.0299999713897705,-6.860000133514404
1744304524.11,15.75,-1.190000057220459,-7.28000020980835
1744304524.11,16.450000762939453,-1.5399999618530273,-7.139999866485596
1744304524.11,18.6200008392334,-4.619999885559082,-7.980000019073486
1744304524.11,20.93000030517578,-6.929999828338623,-8.260000228881836
1744304524.184,16.239999771118164,-7.28000020980835,-7.559999942779541
1744304524.184,7.699999809265137,-4.690000057220459,-4.690000057220459
1744304524.184,2.5899999141693115,-1.8899999856948853,-1.399999976158142
1744304524.184,-2.1700000762939453,0.9100000262260437,2.0999999046325684
1744304524.184,-5.460000038146973,6.369999885559082,4.760000228881836
1744304524.184,2.799999952316284,15.329999923706055,3.2899999618530273
1744304524.184,11.270000457763672,16.030000686645508,-2.450000047683716
1744304524.184,10.079999923706055,8.260000228881836,-7.070000171661377
1744304524.258,8.75,-0.21000000834465027,-10.149999618530273
1744304524.258,9.380000114440918,-3.2200000286102295,-11.130000114440918
1744304524.258,10.220000267028809,-2.799999952316284,-9.3100004196167
1744304524.258,11.40999984741211,-0.9800000190734863,-7.699999809265137
1744304524.258,10.430000305175781,5.110000133514404,-8.75
1744304524.258,6.510000228881836,13.09000015258789,-13.020000457763672
1744304524.258,2.309999942779541,17.989999771118164,-16.100000381469727
1744304524.258,0.8400000333786011,17.149999618530273,-15.960000038146973
1744304524.333,1.75,15.119999885559082,-16.65999984741211
1744304524.333,2.380000114440918,12.600000381469727,-17.360000610351562
1744304524.333,4.96999979019165,10.710000038146973,-17.639999389648438
1744304524.333,6.369999885559082,8.539999961853027,-16.309999465942383
1744304524.333,3.430000066757202,8.890000343322754,-13.789999961853027
1744304524.333,-2.240000009536743,9.449999809265137,-10.010000228881836
1744304524.333,-4.480000019073486,10.430000305175781,-7.28000020980835
1744304524.333,-3.990000009536743,12.180000305175781,-6.230000019073486
1744304524.407,-2.5199999809265137,11.40999984741211,-5.949999809265137
1744304524.407,-1.5399999618530273,8.960000038146973,-4.829999923706055
1744304524.407,-2.240000009536743,7.349999904632568,-3.7100000381469727
1744304524.407,-4.409999847412109,4.199999809265137,-1.5399999618530273
1744304524.407,-7.070000171661377,2.5199999809265137,-0.14000000059604645
1744304524.407,-14.770000457763672,6.720000267028809,0.21000000834465027
1744304524.407,-28.84000015258789,12.390000343322754,-1.399999976158142
1744304524.407,-28.630001068115234,12.8100004196167,-1.0499999523162842
1744304524.481,-29.81999969482422,10.079999923706055,-0.3499999940395355
1744304524.481,-30.729999542236328,13.09000015258789,0.21000000834465027
1744304524.481,-26.31999969482422,17.219999313354492,0.9100000262260437
1744304524.481,-34.09000015258789,15.680000305175781,2.0299999713897705
1744304524.481,-31.56999969482422,15.119999885559082,0.2800000011920929
1744304524.481,-15.609999656677246,10.220000267028809,2.5199999809265137
1744304524.481,-14.279999732971191,15.539999961853027,-0.699999988079071
1744304524.481,1.399999976158142,3.990000009536743,-3.2200000286102295
1744304524.555,1.3300000429153442,1.4700000286102295,-1.8200000524520874
1744304524.555,-1.75,3.569999933242798,0.07000000029802322
1744304524.555,-10.850000381469727,6.230000019073486,1.6100000143051147
1744304524.555,-25.270000457763672,7.210000038146973,5.53000020980835
1744304524.555,-30.380001068115234,6.510000228881836,7.980000019073486
1744304524.555,-25.1299991607666,8.1899995803833,5.389999866485596
1744304524.555,-20.719999313354492,8.819999694824219,0.9800000190734863
1744304524.555,-23.450000762939453,7.769999980926514,-1.9600000381469727
1744304524.629,-26.110000610351562,6.929999828338623,-4.130000114440918
1744304524.629,-24.920000076293945,7.420000076293945,-5.25
1744304524.629,-25.899999618530273,10.359999656677246,-4.550000190734863
1744304524.629,-23.450000762939453,7,-4.760000228881836
1744304524.629,-7.420000076293945,2.450000047683716,-8.1899995803833
1744304524.629,7.139999866485596,5.039999961853027,-13.649999618530273
1744304524.629,5.110000133514404,9.65999984741211,-14.770000457763672
1744304524.629,-6.300000190734863,12.739999771118164,-9.3100004196167
1744304524.704,-9.239999771118164,13.09000015258789,-2.309999942779541
1744304524.704,-4.760000228881836,10.079999923706055,1.6800000667572021
1744304524.704,0.42000001668930054,6.300000190734863,3.009999990463257
1744304524.704,4.829999923706055,7.070000171661377,1.6800000667572021
1744304524.704,4.269999980926514,9.100000381469727,0.07000000029802322
1744304524.704,-0.6299999952316284,7.699999809265137,-1.4700000286102295
1744304524.704,-2.5899999141693115,7.490000247955322,-0.5600000023841858
1744304524.704,-0.8400000333786011,4.130000114440918,1.3300000429153442
1744304524.778,4.900000095367432,3.7799999713897705,1.3300000429153442
1744304524.778,9.9399995803833,0.699999988079071,1.6800000667572021
1744304524.778,13.649999618530273,-1.6100000143051147,1.5399999618530273
1744304524.778,14.420000076293945,1.8200000524520874,1.1200000047683716
1744304524.778,11.6899995803833,6.090000152587891,0.699999988079071
1744304524.778,9.029999732971191,9.449999809265137,0
1744304524.778,7.210000038146973,9.65999984741211,-0.9100000262260437
1744304524.778,8.1899995803833,7.769999980926514,-1.9600000381469727
1744304524.852,7.420000076293945,4.900000095367432,-3.640000104904175
1744304524.852,4.690000057220459,1.8899999856948853,-5.599999904632568
1744304524.852,3.569999933242798,-0.7699999809265137,-7.490000247955322
1744304524.852,2.870000123977661,-3.7100000381469727,-8.470000267028809
1744304524.852,0.3499999940395355,-6.090000152587891,-8.890000343322754
1744304524.852,-1.2599999904632568,-7.139999866485596,-9.380000114440918
1744304524.852,-0.49000000953674316,-6.369999885559082,-10.149999618530273
1744304524.852,-1.8200000524520874,-7.210000038146973,-9.800000190734863
1744304524.926,-5.809999942779541,-7.909999847412109,-8.1899995803833
1744304524.926,-7.28000020980835,-7.699999809265137,-7.630000114440918
1744304524.926,-7.769999980926514,-7.699999809265137,-6.650000095367432
1744304524.926,-8.680000305175781,-7.840000152587891,-5.949999809265137
1744304524.926,-7.840000152587891,-7.070000171661377,-6.159999847412109
1744304524.926,-7.490000247955322,-10.289999961853027,-5.670000076293945
1744304524.926,-7.420000076293945,-12.8100004196167,-5.110000133514404
1744304524.926,-7.349999904632568,-14.210000038146973,-5.320000171661377
1744304525.001,-6.090000152587891,-12.949999809265137,-5.599999904632568
1744304525.001,-6.019999980926514,-11.829999923706055,-5.53000020980835
1744304525.001,-5.670000076293945,-11.480000495910645,-5.460000038146973
1744304525.001,-4.480000019073486,-10.640000343322754,-6.019999980926514
1744304525.001,-4.059999942779541,-10.079999923706055,-6.510000228881836
1744304525.001,-3.569999933242798,-10.710000038146973,-6.230000019073486
1744304525.001,-4.480000019073486,-13.020000457763672,-4.829999923706055
1744304525.001,-6.369999885559082,-14.980000495910645,-2.5199999809265137
1744304525.075,-3.2899999618530273,-16.100000381469727,-0.07000000029802322
1744304525.075,7.139999866485596,-17.5,0.49000000953674316
1744304525.075,17.989999771118164,-18.40999984741211,-1.399999976158142
1744304525.075,19.110000610351562,-17.56999969482422,-3.7799999713897705
1744304525.075,10.079999923706055,-14.699999809265137,-3.2899999618530273
1744304525.075,0.6299999952316284,-9.3100004196167,0.5600000023841858
1744304525.075,-5.670000076293945,-6.159999847412109,5.949999809265137
1744304525.075,-8.539999961853027,-5.389999866485596,10.640000343322754
1744304525.15,-5.460000038146973,-1.8899999856948853,12.319999694824219
1744304525.15,-0.2800000011920929,0.6299999952316284,10.359999656677246
1744304525.15,4.619999885559082,1.5399999618530273,4.409999847412109
1744304525.15,15.119999885559082,3.3600001335144043,-2.309999942779541
1744304525.15,30.65999984741211,3.569999933242798,-4.550000190734863
1744304525.15,36.33000183105469,0.9800000190734863,-1.3300000429153442
1744304525.15,24.290000915527344,-1.4700000286102295,4.199999809265137
1744304525.15,6.579999923706055,-3.430000066757202,8.119999885559082
1744304525.224,4.340000152587891,-5.179999828338623,9.449999809265137
1744304525.224,12.8100004196167,-4.130000114440918,8.609999656677246
1744304525.224,17.149999618530273,-2.5899999141693115,7.28000020980835
1744304525.224,22.81999969482422,2.309999942779541,5.039999961853027
1744304525.224,29.469999313354492,6.019999980926514,1.399999976158142
1744304525.224,26.31999969482422,7.28000020980835,-1.8200000524520874
1744304525.224,21.84000015258789,6.090000152587891,-5.039999961853027
1744304525.224,24.43000030517578,2.380000114440918,-9.3100004196167
1744304525.298,31.56999969482422,0.42000001668930054,-13.440000534057617
1744304525.298,32.689998626708984,-1.8200000524520874,-16.030000686645508
1744304525.298,27.649999618530273,0.07000000029802322,-15.470000267028809
1744304525.298,26.110000610351562,0.8400000333786011,-14
1744304525.298,27.860000610351562,0.42000001668930054,-12.949999809265137
1744304525.298,23.450000762939453,-1.0499999523162842,-11.970000267028809
1744304525.298,15.190000534057617,-0.699999988079071,-10.430000305175781
1744304525.298,9.65999984741211,-0.8400000333786011,-9.3100004196167
1744304525.373,5.320000171661377,-0.7699999809265137,-8.399999618530273
1744304525.373,1.75,-0.5600000023841858,-7.28000020980835
1744304525.373,3.009999990463257,-1.4700000286102295,-6.300000190734863
1744304525.373,4.550000190734863,-2.1700000762939453,-5.599999904632568
1744304525.373,3.2899999618530273,-0.9800000190734863,-4.829999923706055
1744304525.373,1.1200000047683716,-1.6800000667572021,-4.269999980926514
1744304525.373,-0.07000000029802322,-3.430000066757202,-3.640000104904175
1744304525.373,-3.640000104904175,-4.829999923706055,-2.870000123977661
1744304525.447,-3.7100000381469727,-7.559999942779541,-2.380000114440918
1744304525.447,-1.0499999523162842,-8.1899995803833,-3.0799999237060547
1744304525.447,-1.0499999523162842,-6.929999828338623,-3.430000066757202
1744304525.447,-2.5899999141693115,-4.199999809265137,-3.5
1744304525.447,-5.670000076293945,-4.199999809265137,-3.0799999237060547
1744304525.447,-8.399999618530273,-4.130000114440918,-1.75
1744304525.447,-6.650000095367432,-4.130000114440918,-0.8400000333786011
1744304525.447,-5.320000171661377,-3.640000104904175,0.42000001668930054
1744304525.521,-7.139999866485596,-1.3300000429153442,1.75
1744304525.521,-10.149999618530273,0.2800000011920929,2.940000057220459
1744304525.521,-12.949999809265137,-0.2800000011920929,3.7100000381469727
1744304525.521,-14.210000038146973,-1.6100000143051147,4.130000114440918
1744304525.521,-14.630000114440918,-2.0999999046325684,4.619999885559082
1744304525.521,-14.699999809265137,-1.75,4.340000152587891
1744304525.521,-15.399999618530273,-0.699999988079071,4.269999980926514
1744304525.521,-17.010000228881836,-0.21000000834465027,5.110000133514404
1744304525.595,-19.8799991607666,0.699999988079071,6.579999923706055
1744304525.595,-22.889999389648438,0.2800000011920929,8.399999618530273
1744304525.595,-24.010000228881836,-0.14000000059604645,10.010000228881836
1744304525.595,-24.639999389648438,-1.5399999618530273,11.0600004196167
1744304525.595,-25.6200008392334,-3.569999933242798,11.6899995803833
1744304525.595,-19.8799991607666,-4.059999942779541,12.319999694824219
1744304525.595,-15.119999885559082,-5.53000020980835,11.899999618530273
1744304525.595,-18.969999313354492,-7.139999866485596,11.199999809265137
1744304525.669,-20.510000228881836,-5.809999942779541,10.640000343322754
1744304525.669,-20.790000915527344,-3.990000009536743,9.9399995803833
1744304525.669,-23.030000686645508,-1.3300000429153442,9.59000015258789
1744304525.669,-22.68000030517578,1.2599999904632568,9.520000457763672
1744304525.669,-20.440000534057617,3.430000066757202,9.239999771118164
1744304525.669,-21.770000457763672,4.340000152587891,8.960000038146973
1744304525.669,-22.260000228881836,3.8499999046325684,9.3100004196167
1744304525.669,-20.09000015258789,2.6600000858306885,9.730000495910645
1744304525.744,-18.1299991607666,1.6100000143051147,10.220000267028809
1744304525.744,-16.799999237060547,4.690000057220459,10.079999923706055
1744304525.744,-12.460000038146973,11.619999885559082,9.239999771118164
1744304525.744,-17.149999618530273,14.279999732971191,8.539999961853027
1744304525.744,-20.15999984741211,12.25,8.050000190734863
1744304525.744,-15.75,7.699999809265137,7.139999866485596
1744304525.744,-14.980000495910645,4.96999979019165,6.300000190734863
1744304525.744,-14.5600004196167,6.300000190734863,6.440000057220459
1744304525.818,-14.699999809265137,9.449999809265137,7
1744304525.818,-15.819999694824219,11.970000267028809,7.769999980926514
1744304525.818,-17.149999618530273,12.8100004196167,8.470000267028809
1744304525.818,-15.960000038146973,13.440000534057617,8.470000267028809
1744304525.818,-13.579999923706055,12.8100004196167,7.980000019073486
1744304525.818,-12.949999809265137,11.619999885559082,7.980000019073486
1744304525.818,-14.420000076293945,11.130000114440918,8.260000228881836
1744304525.818,-12.8100004196167,10.289999961853027,7.909999847412109
1744304525.892,-11.899999618530273,9.59000015258789,7.070000171661377
1744304525.892,-12.25,9.380000114440918,6.159999847412109
1744304525.892,-11.829999923706055,10.289999961853027,4.900000095367432
1744304525.892,-11.130000114440918,10.989999771118164,3.8499999046325684
1744304525.892,-10.010000228881836,12.460000038146973,3.009999990463257
1744304525.892,-9.239999771118164,13.230000495910645,2.1700000762939453
1744304525.892,-10.079999923706055,12.039999961853027,1.8200000524520874
1744304525.892,-10.989999771118164,11.619999885559082,1.4700000286102295
1744304525.966,-10.710000038146973,11.970000267028809,1.0499999523162842
1744304525.966,-9.170000076293945,11.270000457763672,0.699999988079071
1744304525.966,-11.619999885559082,9.380000114440918,0.8400000333786011
1744304525.966,-13.230000495910645,7.699999809265137,1.1200000047683716
1744304525.966,-12.180000305175781,5.53000020980835,1.2599999904632568
1744304525.966,-10.569999694824219,3.990000009536743,0.9100000262260437
1744304525.966,-9.59000015258789,3.7799999713897705,0.49000000953674316
1744304525.966,-7.769999980926514,3.430000066757202,0.2800000011920929
1744304526.041,-8.890000343322754,2.0999999046325684,0.3499999940395355
1744304526.041,-7,1.2599999904632568,0
1744304526.041,-8.1899995803833,-0.2800000011920929,-0.21000000834465027
1744304526.041,-8.890000343322754,-1.75,-0.5600000023841858
1744304526.041,-8.680000305175781,-1.6100000143051147,-1.3300000429153442
1744304526.041,-9.520000457763672,-1.75,-2.380000114440918
1744304526.041,-10.569999694824219,-0.9800000190734863,-3.2899999618530273
1744304526.041,-10.289999961853027,-0.3499999940395355,-4.340000152587891
1744304526.115,-10.430000305175781,0.49000000953674316,-5.53000020980835
1744304526.115,-10.920000076293945,2.309999942779541,-6.090000152587891
1744304526.115,-9.869999885559082,4.829999923706055,-6.019999980926514
1744304526.115,-8.75,7,-5.039999961853027
1744304526.115,-10.779999732971191,8.680000305175781,-3.2899999618530273
1744304526.115,-6.440000057220459,10.920000076293945,-0.9100000262260437
1744304526.115,-4.059999942779541,14.210000038146973,1.3300000429153442
1744304526.115,-5.880000114440918,16.030000686645508,2.799999952316284
1744304526.189,-6.019999980926514,16.3799991607666,3.8499999046325684
1744304526.189,-5.809999942779541,15.819999694824219,3.9200000762939453
1744304526.189,-3.8499999046325684,13.649999618530273,3.5
1744304526.189,-2.870000123977661,9.59000015258789,3.0799999237060547
1744304526.189,-3.7100000381469727,4.619999885559082,3.1500000953674316
1744304526.189,-3.5,-0.2800000011920929,2.940000057220459
1744304526.189,-2.380000114440918,-3.569999933242798,2.450000047683716
1744304526.189,1.75,-2.0299999713897705,1.2599999904632568
1744304526.263,3.2899999618530273,-1.0499999523162842,-0.3499999940395355
1744304526.263,3.8499999046325684,-1.0499999523162842,-0.9800000190734863
1744304526.263,5.110000133514404,-3.640000104904175,-0.9800000190734863
1744304526.263,6.579999923706055,-7.28000020980835,0.42000001668930054
1744304526.263,6.650000095367432,-7.840000152587891,1.2599999904632568
1744304526.263,4.550000190734863,-11.970000267028809,2.240000009536743
1744304526.263,5.320000171661377,-15.329999923706055,2.7300000190734863
1744304526.263,7.699999809265137,-16.170000076293945,1.2599999904632568
1744304526.337,7.980000019073486,-15.119999885559082,-0.42000001668930054
1744304526.337,7,-13.09000015258789,-2.0299999713897705
1744304526.337,8.680000305175781,-12.880000114440918,-4.059999942779541
1744304526.337,8.890000343322754,-10.289999961853027,-6.650000095367432
1744304526.337,8.819999694824219,-6.510000228881836,-9.869999885559082
1744304526.337,11.130000114440918,-1.399999976158142,-13.649999618530273
1744304526.337,11.34000015258789,3.2200000286102295,-16.940000534057617
1744304526.337,17.079999923706055,7.699999809265137,-19.950000762939453
1744304526.412,27.860000610351562,12.390000343322754,-21.559999465942383
1744304526.412,34.86000061035156,11.0600004196167,-23.239999771118164
1744304526.412,17.149999618530273,7.349999904632568,-22.68000030517578
1744304526.412,7.699999809265137,4.130000114440918,-20.649999618530273
1744304526.412,11.130000114440918,0.9800000190734863,-18.40999984741211
1744304526.412,15.470000267028809,-2.0999999046325684,-15.680000305175781
1744304526.412,17.920000076293945,-4.619999885559082,-12.529999732971191
1744304526.412,13.020000457763672,-5.670000076293945,-8.890000343322754
1744304526.486,5.039999961853027,-4.760000228881836,-5.670000076293945
1744304526.486,-1.0499999523162842,-6.860000133514404,-2.799999952316284
1744304526.486,0.14000000059604645,-9.170000076293945,0
1744304526.486,-0.49000000953674316,-10.640000343322754,0.5600000023841858
1744304526.486,-3.0799999237060547,-12.949999809265137,0.42000001668930054
1744304526.486,-2.240000009536743,-15.819999694824219,0.42000001668930054
1744304526.486,1.8200000524520874,-16.100000381469727,0
1744304526.486,1.5399999618530273,-15.260000228881836,-0.07000000029802322
1744304526.56,3.7799999713897705,-14.770000457763672,-1.2599999904632568
1744304526.56,5.599999904632568,-13.789999961853027,-2.0299999713897705
1744304526.56,2.0299999713897705,-10.149999618530273,-1.0499999523162842
1744304526.56,-1.9600000381469727,-4.96999979019165,-0.07000000029802322
1744304526.56,-5.039999961853027,-3.430000066757202,1.6800000667572021
1744304526.56,-8.050000190734863,-3.9200000762939453,4.690000057220459
1744304526.56,-10.640000343322754,-6.090000152587891,7.490000247955322
1744304526.56,-9.730000495910645,-8.1899995803833,9.9399995803833
1744304526.634,-6.440000057220459,-9.239999771118164,12.319999694824219
1744304526.634,-2.240000009536743,-8.329999923706055,14.350000381469727
1744304526.634,1.3300000429153442,-5.460000038146973,14.140000343322754
1744304526.634,0.5600000023841858,-2.940000057220459,13.020000457763672
1744304526.634,-3.5,0.699999988079071,12.529999732971191
1744304526.634,-4.96999979019165,2.0999999046325684,12.529999732971191
1744304526.634,-4.130000114440918,1.190000057220459,10.779999732971191
1744304526.634,-3.3600001335144043,0.49000000953674316,8.75
1744304526.709,-3.009999990463257,2.240000009536743,7.139999866485596
1744304526.709,-0.07000000029802322,4.550000190734863,4.760000228881836
1744304526.709,2.309999942779541,6.789999961853027,1.8200000524520874
1744304526.709,4.269999980926514,8.050000190734863,-0.5600000023841858
1744304526.709,3.3600001335144043,8.609999656677246,-2.0999999046325684
1744304526.709,1.0499999523162842,11.480000495910645,-1.75
1744304526.709,2.870000123977661,15.119999885559082,-0.5600000023841858
1744304526.709,1.2599999904632568,14.420000076293945,0.49000000953674316
1744304526.784,-1.6800000667572021,13.440000534057617,1.6100000143051147
1744304526.784,-1.190000057220459,9.239999771118164,1.9600000381469727
1744304526.784,-0.07000000029802322,6.159999847412109,2.5199999809265137
1744304526.784,3.7799999713897705,3.7100000381469727,2.940000057220459
1744304526.784,4.480000019073486,2.940000057220459,2.870000123977661
1744304526.784,6.579999923706055,4.900000095367432,2.5899999141693115
1744304526.784,8.329999923706055,8.680000305175781,1.190000057220459
1744304526.784,9.100000381469727,10.779999732971191,-0.14000000059604645
1744304526.858,12.109999656677246,11.970000267028809,-2.0299999713897705
1744304526.858,10.850000381469727,11.130000114440918,-3.2899999618530273
1744304526.858,6.929999828338623,8.539999961853027,-3.0799999237060547
1744304526.858,7.840000152587891,6.300000190734863,-2.450000047683716
1744304526.858,10.920000076293945,3.7100000381469727,-1.399999976158142
1744304526.858,9.520000457763672,0.699999988079071,-0.07000000029802322
1744304526.858,6.860000133514404,-1.75,1.1200000047683716
1744304526.858,3.5,-3.009999990463257,2.309999942779541
1744304526.932,0.699999988079071,-3.1500000953674316,2.6600000858306885
1744304526.932,-2.0999999046325684,-1.1200000047683716,2.5199999809265137
1744304526.932,-4.550000190734863,0.2800000011920929,2.450000047683716
1744304526.932,-6.230000019073486,0.9100000262260437,3.0799999237060547
1744304526.932,-9.520000457763672,1.1200000047683716,4.550000190734863
1744304526.932,-9.3100004196167,2.309999942779541,7
1744304526.932,-7.769999980926514,1.75,7.980000019073486
1744304526.932,-8.470000267028809,0.14000000059604645,8.119999885559082
1744304527.006,-7,-0.49000000953674316,6.860000133514404
1744304527.006,-6.300000190734863,-0.9800000190734863,4.480000019073486
1744304527.006,-10.989999771118164,-1.6100000143051147,2.450000047683716
1744304527.006,-10.920000076293945,-2.5199999809265137,1.6100000143051147
1744304527.006,-9.3100004196167,-2.309999942779541,1.4700000286102295
1744304527.006,-7.210000038146973,-2.240000009536743,1.4700000286102295
1744304527.006,-7.559999942779541,-2.1700000762939453,1.3300000429153442
1744304527.006,-6.159999847412109,-2.1700000762939453,0.3499999940395355
1744304527.081,-4.130000114440918,-2.1700000762939453,-1.0499999523162842
1744304527.081,-3.1500000953674316,-1.6800000667572021,-2.799999952316284
1744304527.081,-1.8899999856948853,-1.0499999523162842,-4.480000019073486
1744304527.081,0.699999988079071,0.7699999809265137,-6.019999980926514
1744304527.081,3.009999990463257,2.799999952316284,-6.650000095367432
1744304527.081,3.7799999713897705,3.990000009536743,-6.720000267028809
1744304527.081,5.880000114440918,4.059999942779541,-6.789999961853027
1744304527.081,4.199999809265137,2.940000057220459,-5.53000020980835
1744304527.155,-8.260000228881836,0.5600000023841858,-3.1500000953674316
1744304527.155,-3.5,0.6299999952316284,-2.0999999046325684
1744304527.155,0.2800000011920929,1.9600000381469727,-1.2599999904632568
1744304527.155,-7.28000020980835,2.7300000190734863,1.0499999523162842
1744304527.155,-5.039999961853027,2.7300000190734863,3.1500000953674316
1744304527.155,-0.42000001668930054,2.5199999809265137,3.9200000762939453
1744304527.155,-0.5600000023841858,3.7100000381469727,3.640000104904175
1744304527.155,0.21000000834465027,2.6600000858306885,3.1500000953674316
1744304527.229,2.0999999046325684,-0.9800000190734863,3.3600001335144043
1744304527.229,2.0299999713897705,-4.96999979019165,3.2899999618530273
1744304527.229,2.380000114440918,-8.890000343322754,2.6600000858306885
1744304527.229,7.349999904632568,-8.470000267028809,2.5899999141693115
1744304527.229,14.140000343322754,-4.130000114440918,2.5899999141693115
1744304527.229,9.170000076293945,-1.9600000381469727,1.3300000429153442
1744304527.229,4.690000057220459,0.07000000029802322,1.6800000667572021
1744304527.229,10.149999618530273,-2.240000009536743,1.0499999523162842
1744304527.303,9.449999809265137,-4.409999847412109,-1.75
1744304527.303,5.460000038146973,-3.2899999618530273,-3.569999933242798
1744304527.303,7.210000038146973,-3.640000104904175,-4.900000095367432
1744304527.303,10.850000381469727,-2.0999999046325684,-6.789999961853027
1744304527.303,10.640000343322754,0.699999988079071,-9.800000190734863
1744304527.303,10.779999732971191,2.7300000190734863,-11.760000228881836
1744304527.303,9.449999809265137,2.799999952316284,-11.760000228881836
1744304527.303,8.399999618530273,2.309999942779541,-10.640000343322754
1744304527.377,8.260000228881836,0.49000000953674316,-9.380000114440918
1744304527.377,7.349999904632568,-1.8899999856948853,-8.680000305175781
1744304527.377,6.860000133514404,-2.870000123977661,-8.819999694824219
1744304527.377,7.210000038146973,-3.5,-9.029999732971191
1744304527.377,9.449999809265137,-3.5,-9.520000457763672
1744304527.377,10.779999732971191,-3.8499999046325684,-9.59000015258789
1744304527.377,10.079999923706055,-6.300000190734863,-8.75
1744304527.377,7.769999980926514,-10.430000305175781,-7.139999866485596
1744304527.452,10.989999771118164,-13.510000228881836,-6.579999923706055
1744304527.452,14.350000381469727,-15.609999656677246,-6.789999961853027
1744304527.452,8.050000190734863,-16.309999465942383,-4.269999980926514
1744304527.452,-7.139999866485596,-13.15999984741211,-0.2800000011920929
1744304527.452,-22.260000228881836,-15.819999694824219,3.2200000286102295
1744304527.452,-21.420000076293945,-16.8700008392334,4.059999942779541
1744304527.452,-9.449999809265137,-16.59000015258789,4.059999942779541
1744304527.452,-2.450000047683716,-16.59000015258789,2.799999952316284
1744304527.526,10.5,-15.399999618530273,0
1744304527.526,16.100000381469727,-12.600000381469727,-3.8499999046325684
1744304527.526,9.3100004196167,-10.359999656677246,-6.090000152587891
1744304527.526,-1.6800000667572021,-8.399999618530273,-5.25
1744304527.526,-10.149999618530273,-5.809999942779541,-4.550000190734863
1744304527.526,-10.220000267028809,-5.53000020980835,-5.039999961853027
1744304527.526,-9.800000190734863,-8.960000038146973,-6.720000267028809
1744304527.526,-14.90999984741211,-12.180000305175781,-8.050000190734863
1744304527.6,-12.25,-14.210000038146973,-9.730000495910645
1744304527.6,-0.3499999940395355,-17.5,-11.130000114440918
1744304527.6,3.009999990463257,-18.760000228881836,-9.869999885559082
1744304527.6,1.2599999904632568,-16.729999542236328,-7
1744304527.6,1.8200000524520874,-15.399999618530273,-4.619999885559082
1744304527.6,8.609999656677246,-15.539999961853027,-4.690000057220459
1744304527.6,10.359999656677246,-14.420000076293945,-5.389999866485596
1744304527.6,11.40999984741211,-14.140000343322754,-5.880000114440918
1744304527.674,13.789999961853027,-14.90999984741211,-6.579999923706055
1744304527.674,12.739999771118164,-16.729999542236328,-6.720000267028809
1744304527.674,6.860000133514404,-18.270000457763672,-5.53000020980835
1744304527.674,2.799999952316284,-17.43000030517578,-4.550000190734863
1744304527.674,-0.2800000011920929,-15.399999618530273,-3.3600001335144043
1744304527.674,-4.690000057220459,-12.25,-0.8400000333786011
1744304527.674,-6.789999961853027,-12.180000305175781,2.940000057220459
1744304527.674,1.5399999618530273,-15.680000305175781,5.179999828338623
1744304527.749,11.619999885559082,-19.110000610351562,3.990000009536743
1744304527.749,15.190000534057617,-19.950000762939453,2.1700000762939453
1744304527.749,22.049999237060547,-18.200000762939453,-0.7699999809265137
1744304527.749,24.850000381469727,-17.290000915527344,-5.25
1744304527.749,19.46000099182129,-11.619999885559082,-10.079999923706055
1744304527.749,15.609999656677246,-8.260000228881836,-10.079999923706055
1744304527.749,12.739999771118164,-7.139999866485596,-10.710000038146973
1744304527.749,12.109999656677246,-10.640000343322754,-10.149999618530273
1744304527.823,14.210000038146973,-14,-8.680000305175781
1744304527.823,9.869999885559082,-14.84000015258789,-7.28000020980835
1744304527.823,4.480000019073486,-14.980000495910645,-5.110000133514404
1744304527.823,1.1200000047683716,-14.069999694824219,-1.8200000524520874
1744304527.823,-2.380000114440918,-13.440000534057617,2.940000057220459
1744304527.823,-5.460000038146973,-14.5600004196167,8.119999885559082
1744304527.823,-4.130000114440918,-15.819999694824219,11.829999923706055
1744304527.823,-1.3300000429153442,-16.3799991607666,12.460000038146973
1744304527.897,2.1700000762939453,-14.699999809265137,10.220000267028809
1744304527.897,5.809999942779541,-11.0600004196167,6.159999847412109
1744304527.897,5.110000133514404,-7.630000114440918,2.1700000762939453
1744304527.897,0.699999988079071,-3.990000009536743,-1.8200000524520874
1744304527.897,-2.240000009536743,-2.0299999713897705,-4.829999923706055
1744304527.897,-3.2899999618530273,-1.8200000524520874,-7.139999866485596
1744304527.897,-2.5899999141693115,-2.380000114440918,-8.539999961853027
1744304527.897,0.14000000059604645,-4.199999809265137,-9.3100004196167
1744304527.971,3.2899999618530273,-6.300000190734863,-9.239999771118164
1744304527.971,3.3600001335144043,-6.929999828338623,-7.769999980926514
1744304527.971,1.6800000667572021,-6.650000095367432,-4.059999942779541
1744304527.971,0,-6.019999980926514,1.399999976158142
1744304527.971,-0.07000000029802322,-4.550000190734863,3.9200000762939453
1744304527.971,2.0999999046325684,-2.7300000190734863,2.309999942779541
1744304527.971,2.870000123977661,-0.21000000834465027,0.21000000834465027
1744304527.971,3.430000066757202,1.190000057220459,-0.9800000190734863
1744304528.045,3.3600001335144043,1.0499999523162842,-1.399999976158142
1744304528.045,2.0299999713897705,0.2800000011920929,-0.8400000333786011
1744304528.045,2.0999999046325684,-0.5600000023841858,-0.14000000059604645
1744304528.045,3.430000066757202,-1.8200000524520874,0.6299999952316284
1744304528.045,4.829999923706055,-1.75,1.5399999618530273
1744304528.045,6.159999847412109,-0.14000000059604645,3.2200000286102295
1744304528.045,5.949999809265137,3.0799999237060547,5.320000171661377
1744304528.045,5.110000133514404,5.809999942779541,7.559999942779541
1744304528.12,5.25,6.789999961853027,9.449999809265137
1744304528.12,6.090000152587891,6.019999980926514,10.149999618530273
1744304528.12,5.110000133514404,3.990000009536743,9.380000114440918
1744304528.12,4.760000228881836,1.5399999618530273,8.470000267028809
1744304528.12,6.159999847412109,0.6299999952316284,6.650000095367432
1744304528.12,8.609999656677246,0,4.619999885559082
1744304528.12,7.630000114440918,1.5399999618530273,2.1700000762939453
1744304528.12,4.269999980926514,3.7799999713897705,-0.2800000011920929
1744304528.194,1.9600000381469727,5.179999828338623,-2.309999942779541
1744304528.194,1.75,6.720000267028809,-3.990000009536743
1744304528.194,2.5899999141693115,6.019999980926514,-4.900000095367432
1744304528.194,2.940000057220459,4.550000190734863,-5.460000038146973
1744304528.194,4.550000190734863,2.940000057220459,-6.300000190734863
1744304528.194,5.320000171661377,1.2599999904632568,-7.139999866485596
1744304528.194,2.940000057220459,0,-7.420000076293945
1744304528.194,1.5399999618530273,-0.9100000262260437,-6.860000133514404
1744304528.268,3.8499999046325684,2.309999942779541,-6.230000019073486
1744304528.268,4.690000057220459,5.389999866485596,-5.599999904632568
1744304528.268,4.900000095367432,7.210000038146973,-4.619999885559082
1744304528.268,4.900000095367432,4.900000095367432,-3.7799999713897705
1744304528.268,3.990000009536743,0.07000000029802322,-1.8899999856948853
1744304528.268,-2.380000114440918,-4.059999942779541,-0.21000000834465027
1744304528.268,-2.799999952316284,-5.039999961853027,1.2599999904632568
1744304528.268,0.3499999940395355,-5.110000133514404,1.1200000047683716
1744304528.343,0.21000000834465027,-3.1500000953674316,-0.07000000029802322
1744304528.343,-1.3300000429153442,-2.6600000858306885,-1.4700000286102295
1744304528.343,-0.8400000333786011,-3.5,-2.380000114440918
1744304528.343,2.0999999046325684,-3.8499999046325684,-3.2200000286102295
1744304528.343,4.269999980926514,-4.199999809265137,-5.320000171661377
1744304528.343,5.320000171661377,-5.25,-8.1899995803833
1744304528.343,8.399999618530273,-5.179999828338623,-10.989999771118164
1744304528.343,14.770000457763672,-4.409999847412109,-13.09000015258789
1744304528.418,15.190000534057617,-4.619999885559082,-13.369999885559082
1744304528.418,11.40999984741211,-4.619999885559082,-12.529999732971191
1744304528.418,8.119999885559082,-4.900000095367432,-11.130000114440918
1744304528.418,5.599999904632568,-6.369999885559082,-9.65999984741211
1744304528.418,2.5899999141693115,-8.329999923706055,-7.909999847412109
1744304528.418,-1.399999976158142,-10.920000076293945,-6.440000057220459
1744304528.418,-5.460000038146973,-14.210000038146973,-5.670000076293945
1744304528.418,-7.769999980926514,-15.819999694824219,-5.599999904632568
1744304528.492,-8.399999618530273,-18.40999984741211,-5.110000133514404
1744304528.492,-9.449999809265137,-20.3700008392334,-3.569999933242798
1744304528.492,-9.59000015258789,-18.1299991607666,-2.5199999809265137
1744304528.492,-10.640000343322754,-15.399999618530273,-2.5199999809265137
1744304528.492,-12.25,-12.460000038146973,-2.240000009536743
1744304528.492,-12.529999732971191,-8.819999694824219,-2.309999942779541
1744304528.492,-12.180000305175781,-7.769999980926514,-3.3600001335144043
1744304528.492,-8.399999618530273,-7.630000114440918,-4.340000152587891
1744304528.566,-8.119999885559082,-7.630000114440918,-5.25
1744304528.566,-7.840000152587891,-7.28000020980835,-6.720000267028809
1744304528.566,-6.230000019073486,-6.929999828338623,-8.260000228881836
1744304528.566,-6.300000190734863,-7.559999942779541,-9.239999771118164
1744304528.566,-5.670000076293945,-7.630000114440918,-9.3100004196167
1744304528.566,-6.090000152587891,-7.420000076293945,-8.609999656677246
1744304528.566,-9.170000076293945,-7.630000114440918,-7.139999866485596
1744304528.566,-9.800000190734863,-6.929999828338623,-5.179999828338623
1744304528.64,-8.680000305175781,-6.440000057220459,-2.799999952316284
1744304528.64,-8.399999618530273,-6.929999828338623,-0.2800000011920929
1744304528.64,-9.449999809265137,-7.490000247955322,1.9600000381469727
1744304528.64,-9.170000076293945,-7.349999904632568,2.380000114440918
1744304528.64,-9.449999809265137,-6.440000057220459,1.8200000524520874
1744304528.64,-12.319999694824219,-5.599999904632568,0.699999988079071
1744304528.64,-15.819999694824219,-4.900000095367432,0.49000000953674316
1744304528.64,-16.520000457763672,-4.409999847412109,1.2599999904632568
1744304528.714,-14.770000457763672,-4.619999885559082,2.1700000762939453
1744304528.714,-14.630000114440918,-5.320000171661377,2.870000123977661
1744304528.714,-14.279999732971191,-7.909999847412109,3.1500000953674316
1744304528.714,-12.739999771118164,-11.270000457763672,3.640000104904175
1744304528.714,-10.989999771118164,-12.739999771118164,4.690000057220459
1744304528.714,-7.769999980926514,-8.539999961853027,6.090000152587891
1744304528.714,-4.900000095367432,-3.2200000286102295,6.369999885559082
1744304528.714,-7.349999904632568,-2.940000057220459,6.019999980926514
1744304528.789,-9.3100004196167,-6.720000267028809,5.179999828338623
1744304528.789,-11.40999984741211,-10.850000381469727,4.269999980926514
1744304528.789,-11.34000015258789,-13.369999885559082,3.640000104904175
1744304528.789,-4.760000228881836,-11.619999885559082,3.009999990463257
1744304528.789,-1.8200000524520874,-7.559999942779541,2.380000114440918
1744304528.789,-2.450000047683716,-3.1500000953674316,1.2599999904632568
1744304528.789,-2.940000057220459,-1.3300000429153442,0.8400000333786011
1744304528.789,-2.450000047683716,0.21000000834465027,0.699999988079071
1744304528.863,-1.399999976158142,0.8400000333786011,0.699999988079071
1744304528.863,-2.0999999046325684,1.8899999856948853,0.699999988079071
1744304528.863,-1.75,1.5399999618530273,1.0499999523162842
1744304528.863,-1.399999976158142,1.75,1.75
1744304528.863,-1.6800000667572021,2.1700000762939453,2.450000047683716
1744304528.863,-1.0499999523162842,1.0499999523162842,3.2200000286102295
1744304528.863,-0.21000000834465027,-0.8400000333786011,3.3600001335144043
1744304528.863,1.3300000429153442,-2.0999999046325684,3.009999990463257
1744304528.937,3.640000104904175,-3.0799999237060547,2.940000057220459
1744304528.937,4.480000019073486,-3.0799999237060547,3.009999990463257
1744304528.937,4.96999979019165,-2.940000057220459,3.430000066757202
1744304528.937,4.059999942779541,-3.430000066757202,3.7100000381469727
1744304528.937,3.5,-1.3300000429153442,3.569999933242798
1744304528.937,1.75,-1.190000057220459,2.940000057220459
1744304528.937,1.8200000524520874,-3.569999933242798,3.1500000953674316
1744304528.937,6.510000228881836,-6.159999847412109,4.760000228881836
1744304529.011,10.289999961853027,-7.070000171661377,5.25
1744304529.011,10.710000038146973,-6.720000267028809,4.96999979019165
1744304529.011,10.079999923706055,-5.740000247955322,3.569999933242798
1744304529.011,9.239999771118164,-5.880000114440918,1.2599999904632568
1744304529.011,8.470000267028809,-6.090000152587891,-1.399999976158142
1744304529.011,10.079999923706055,-6.230000019073486,-4.130000114440918
1744304529.011,10.430000305175781,-7.139999866485596,-5.949999809265137
1744304529.011,9.59000015258789,-8.260000228881836,-6.860000133514404
1744304529.085,9.730000495910645,-9.029999732971191,-7.490000247955322
1744304529.085,10.779999732971191,-8.960000038146973,-7.840000152587891
1744304529.085,7.630000114440918,-8.680000305175781,-7.139999866485596
1744304529.085,7.070000171661377,-8.399999618530273,-5.809999942779541
1744304529.085,8.119999885559082,-8.960000038146973,-4.480000019073486
1744304529.085,9.65999984741211,-9.869999885559082,-2.7300000190734863
1744304529.085,10.920000076293945,-10.569999694824219,-0.9100000262260437
1744304529.085,10.850000381469727,-10.149999618530273,0.7699999809265137
1744304529.16,11.480000495910645,-8.609999656677246,2.309999942779541
1744304529.16,11.34000015258789,-7.070000171661377,4.130000114440918
1744304529.16,11.130000114440918,-5.599999904632568,6.159999847412109
1744304529.16,11.270000457763672,-3.990000009536743,7
1744304529.16,11.199999809265137,-1.6100000143051147,7.699999809265137
1744304529.16,9.520000457763672,1.5399999618530273,8.470000267028809
1744304529.16,6.650000095367432,4.550000190734863,9.029999732971191
1744304529.16,2.7300000190734863,6.510000228881836,9.520000457763672
1744304529.234,-1.8200000524520874,7.210000038146973,10.289999961853027
1744304529.234,-0.2800000011920929,10.5,10.289999961853027
1744304529.234,-1.190000057220459,14.069999694824219,9.100000381469727
1744304529.234,-4.690000057220459,14.630000114440918,8.119999885559082
1744304529.234,-4.480000019073486,11.760000228881836,7.769999980926514
1744304529.234,-1.3300000429153442,9.449999809265137,7.840000152587891
1744304529.234,-3.0799999237060547,6.929999828338623,7.840000152587891
1744304529.234,-3.430000066757202,6.369999885559082,8.329999923706055
1744304529.308,1.190000057220459,10.079999923706055,7.980000019073486
1744304529.308,2.5199999809265137,14.90999984741211,7.139999866485596
1744304529.308,-0.7699999809265137,17.079999923706055,6.650000095367432
1744304529.308,-3.990000009536743,17.079999923706055,7.070000171661377
1744304529.308,-4.619999885559082,16.239999771118164,8.260000228881836
1744304529.308,-7.699999809265137,14.279999732971191,9.449999809265137
1744304529.308,-10.220000267028809,14.5600004196167,9.520000457763672
1744304529.308,-8.329999923706055,15.680000305175781,9.520000457763672
1744304529.382,-6.230000019073486,16.450000762939453,8.470000267028809
1744304529.382,-6.019999980926514,17.219999313354492,6.720000267028809
1744304529.382,-6.230000019073486,15.680000305175781,5.110000133514404
1744304529.382,-6.929999828338623,12.460000038146973,3.8499999046325684
1744304529.382,-7.840000152587891,9.170000076293945,2.7300000190734863
1744304529.382,-9.65999984741211,5.670000076293945,1.399999976158142
1744304529.382,-12.25,3.2200000286102295,0.8400000333786011
1744304529.382,-13.369999885559082,1.75,0.699999988079071
1744304529.457,-13.859999656677246,1.2599999904632568,0.3499999940395355
1744304529.457,-14.5600004196167,0.21000000834465027,0.21000000834465027
1744304529.457,-15.119999885559082,3.2899999618530273,0
1744304529.457,-17.989999771118164,2.380000114440918,-0.49000000953674316
1744304529.457,-15.539999961853027,1.0499999523162842,-0.21000000834465027
1744304529.457,-14.84000015258789,-1.9600000381469727,-0.21000000834465027
1744304529.457,-16.3799991607666,-2.799999952316284,-0.3499999940395355
1744304529.457,-16.799999237060547,-2.309999942779541,-0.42000001668930054
1744304529.531,-16.030000686645508,-1.6100000143051147,0.3499999940395355
1744304529.531,-15.609999656677246,-1.75,1.0499999523162842
1744304529.531,-16.450000762939453,-1.8200000524520874,1.4700000286102295
1744304529.531,-14.980000495910645,-3.0799999237060547,1.8899999856948853
1744304529.531,-13.510000228881836,-3.569999933242798,2.0999999046325684
1744304529.531,-13.930000305175781,-3.990000009536743,1.9600000381469727
1744304529.531,-15.119999885559082,-3.3600001335144043,1.6100000143051147
1744304529.531,-16.100000381469727,-3.0799999237060547,0.7699999809265137
1744304529.605,-14.420000076293945,-3.3600001335144043,0
1744304529.605,-13.020000457763672,-4.059999942779541,-0.8400000333786011
1744304529.605,-11.6899995803833,-4.269999980926514,-1.2599999904632568
1744304529.605,-9.449999809265137,-3.5,-1.6800000667572021
1744304529.605,-9.730000495910645,-2.5899999141693115,-2.240000009536743
1744304529.605,-8.1899995803833,-0.42000001668930054,-3.009999990463257
1744304529.605,-7.349999904632568,0.9100000262260437,-3.7799999713897705
1744304529.605,-7.420000076293945,1.9600000381469727,-4.690000057220459
1744304529.679,-6.929999828338623,2.5199999809265137,-5.460000038146973
1744304529.679,-6.230000019073486,2.5899999141693115,-6.300000190734863
1744304529.679,-5.670000076293945,1.8200000524520874,-6.789999961853027
1744304529.679,-3.1500000953674316,-0.5600000023841858,-6.929999828338623
1744304529.679,0.7699999809265137,-1.1200000047683716,-7
1744304529.679,4.480000019073486,2.0999999046325684,-7.980000019073486
1744304529.679,0.7699999809265137,3.1500000953674316,-9.100000381469727
1744304529.679,7.139999866485596,3.990000009536743,-9.869999885559082
1744304529.753,15.399999618530273,0.8400000333786011,-11.199999809265137
1744304529.753,8.539999961853027,-3.640000104904175,-10.430000305175781
1744304529.753,23.59000015258789,-2.0299999713897705,-9.59000015258789
1744304529.753,36.119998931884766,-5.179999828338623,-9.9399995803833
1744304529.753,3.2200000286102295,-2.380000114440918,-9.170000076293945
1744304529.753,-6.510000228881836,6.720000267028809,-8.399999618530273
1744304529.753,37.52000045776367,7.210000038146973,-9.869999885559082
1744304529.753,44.72999954223633,12.600000381469727,-12.109999656677246
1744304529.828,28.350000381469727,-3.5,-9.520000457763672
1744304529.828,-14.84000015258789,-11.970000267028809,-9.869999885559082
1744304529.828,34.650001525878906,-10.850000381469727,-10.079999923706055
1744304529.828,14.699999809265137,-9.3100004196167,-7.909999847412109
1744304529.828,6.019999980926514,-4.550000190734863,-5.110000133514404
1744304529.828,16.8700008392334,-6.369999885559082,-4.829999923706055
1744304529.828,17.56999969482422,-6.720000267028809,-3.8499999046325684
1744304529.828,15.329999923706055,-5.670000076293945,-4.550000190734863
1744304529.903,18.969999313354492,-8.609999656677246,-5.740000247955322
1744304529.903,13.09000015258789,-12.600000381469727,-5.460000038146973
1744304529.903,3.7799999713897705,-16.170000076293945,-5.039999961853027
1744304529.903,-12.600000381469727,-18.40999984741211,-2.5199999809265137
1744304529.903,-26.950000762939453,-16.8700008392334,1.3300000429153442
1744304529.903,-31.079999923706055,-14.420000076293945,3.0799999237060547
1744304529.903,-29.190000534057617,-10.5,2.870000123977661
1744304529.903,-26.739999771118164,-9.239999771118164,2.5899999141693115
1744304529.977,-19.670000076293945,-9.449999809265137,2.799999952316284
1744304529.977,-11.270000457763672,-12.039999961853027,2.5899999141693115
1744304529.977,-8.75,-13.230000495910645,1.6800000667572021
1744304529.977,-6.789999961853027,-13.579999923706055,0.6299999952316284
1744304529.977,-4.900000095367432,-13.020000457763672,-1.0499999523162842
1744304529.977,-5.25,-12.880000114440918,-2.6600000858306885
1744304529.977,-4.059999942779541,-13.649999618530273,-4.199999809265137
1744304529.977,-4.269999980926514,-15.329999923706055,-4.96999979019165
1744304530.051,-5.179999828338623,-17.010000228881836,-4.829999923706055
1744304530.051,-2.6600000858306885,-19.110000610351562,-5.25
1744304530.051,-3.009999990463257,-21.84000015258789,-5.599999904632568
1744304530.051,-2.940000057220459,-24.5,-5.809999942779541
1744304530.051,-2.870000123977661,-25.690000534057617,-5.880000114440918
1744304530.051,-3.3600001335144043,-27.649999618530273,-6.230000019073486
1744304530.051,-1.75,-30.520000457763672,-6.369999885559082
1744304530.051,-2.450000047683716,-32.83000183105469,-6.440000057220459
1744304530.126,-2.940000057220459,-34.22999954223633,-6.369999885559082
1744304530.126,-2.6600000858306885,-35.42000198364258,-6.159999847412109
1744304530.126,-3.640000104904175,-36.400001525878906,-5.880000114440918
1744304530.126,-7.139999866485596,-36.959999084472656,-5.389999866485596
1744304530.126,-9.520000457763672,-36.2599983215332,-4.130000114440918
1744304530.126,-11.40999984741211,-36.189998626708984,-2.0999999046325684
1744304530.126,-13.579999923706055,-36.61000061035156,-1.6100000143051147
1744304530.126,-8.329999923706055,-37.59000015258789,-3.009999990463257
1744304530.2,-6.159999847412109,-38.220001220703125,-4.619999885559082
1744304530.2,-3.7799999713897705,-37.79999923706055,-7.139999866485596
1744304530.2,-1.9600000381469727,-33.810001373291016,-10.079999923706055
1744304530.2,-3.7100000381469727,-31.5,-12.319999694824219
1744304530.2,-8.1899995803833,-32.619998931884766,-13.579999923706055
1744304530.2,-6.929999828338623,-35.84000015258789,-13.930000305175781
1744304530.2,-5.460000038146973,-38.56999969482422,-11.619999885559082
1744304530.2,-3.9200000762939453,-40.31999969482422,-8.399999618530273
1744304530.274,-6.230000019073486,-39.060001373291016,-6.650000095367432
1744304530.274,-5.599999904632568,-36.04999923706055,-6.230000019073486
1744304530.274,-3.7100000381469727,-33.38999938964844,-6.860000133514404
1744304530.274,-2.940000057220459,-33.31999969482422,-7.699999809265137
1744304530.274,-2.240000009536743,-34.369998931884766,-8.1899995803833
1744304530.274,-3.7100000381469727,-36.540000915527344,-8.75
1744304530.274,-4.619999885559082,-37.59000015258789,-9.3100004196167
1744304530.274,-4.059999942779541,-38.0099983215332,-10.010000228881836
1744304530.348,-4.829999923706055,-38.150001525878906,-10.640000343322754
1744304530.348,-5.599999904632568,-37.869998931884766,-11.199999809265137
1744304530.348,-6.650000095367432,-37.939998626708984,-11.40999984741211
1744304530.348,-7,-39.619998931884766,-11.270000457763672
1744304530.348,-5.110000133514404,-41.86000061035156,-10.220000267028809
1744304530.348,-7.980000019073486,-45.63999938964844,-8.819999694824219
1744304530.348,-10.779999732971191,-49.630001068115234,-7.349999904632568
1744304530.348,-13.510000228881836,-53.060001373291016,-6.300000190734863
1744304530.422,-15.819999694824219,-55.09000015258789,-5.389999866485596
1744304530.422,-17.71000099182129,-55.02000045776367,-4.480000019073486
1744304530.422,-18.549999237060547,-54.459999084472656,-4.130000114440918
1744304530.422,-16.799999237060547,-51.029998779296875,-4.340000152587891
1744304530.422,-15.329999923706055,-49.97999954223633,-5.110000133514404
1744304530.422,-14.84000015258789,-50.189998626708984,-6.159999847412109
1744304530.422,-12.460000038146973,-49.84000015258789,-7
1744304530.422,-10.289999961853027,-48.720001220703125,-7.699999809265137
1744304530.497,-10.640000343322754,-48.09000015258789,-8.329999923706055
1744304530.497,-11.130000114440918,-48.02000045776367,-8.329999923706055
1744304530.497,-12.670000076293945,-46.900001525878906,-7.769999980926514
1744304530.497,-13.720000267028809,-46.130001068115234,-6.650000095367432
1744304530.497,-16.3799991607666,-46.40999984741211,-5.039999961853027
1744304530.497,-23.65999984741211,-48.02000045776367,-3.2899999618530273
1744304530.497,-31.639999389648438,-49.560001373291016,-1.399999976158142
1744304530.497,-28.21000099182129,-48.790000915527344,2.240000009536743
1744304530.571,-21.559999465942383,-47.31999969482422,6.230000019073486
1744304530.571,-28.350000381469727,-43.959999084472656,7.699999809265137
1744304530.571,-28.90999984741211,-42.349998474121094,7.769999980926514
1744304530.571,-20.15999984741211,-32.619998931884766,4.690000057220459
1744304530.571,-10.010000228881836,-10.779999732971191,-1.1200000047683716
1744304530.571,4.480000019073486,9.3100004196167,-7
1744304530.571,-7.980000019073486,29.540000915527344,-3.990000009536743
1744304530.571,-17.219999313354492,37.79999923706055,1.4700000286102295
1744304530.645,-16.799999237060547,35.84000015258789,3.9200000762939453
1744304530.645,-21.770000457763672,27.020000457763672,4.760000228881836
1744304530.645,-19.670000076293945,14.350000381469727,5.460000038146973
1744304530.645,-20.299999237060547,1.3300000429153442,7.559999942779541
1744304530.645,-16.940000534057617,-10.920000076293945,9.239999771118164
1744304530.645,-7.840000152587891,-16.8700008392334,9.170000076293945
1744304530.645,-10.640000343322754,-19.8799991607666,8.960000038146973
1744304530.645,-8.819999694824219,-25.34000015258789,9.029999732971191
1744304530.719,-7.210000038146973,-32.54999923706055,8.470000267028809
1744304530.719,0.3499999940395355,-32.7599983215332,5.809999942779541
1744304530.719,10.359999656677246,-30.799999237060547,3.0799999237060547
1744304530.719,16.8700008392334,-35.4900016784668,2.0299999713897705
1744304530.719,16.520000457763672,-44.45000076293945,2.1700000762939453
1744304530.719,11.619999885559082,-53.47999954223633,2.799999952316284
1744304530.719,6.300000190734863,-58.59000015258789,3.7100000381469727
1744304530.719,0.07000000029802322,-58.72999954223633,4.480000019073486
1744304530.793,-2.5899999141693115,-57.189998626708984,4.900000095367432
1744304530.793,-0.42000001668930054,-54.31999969482422,4.480000019073486
1744304530.793,-2.5199999809265137,-51.79999923706055,3.990000009536743
1744304530.793,-6.090000152587891,-47.25,2.450000047683716
1744304530.793,-7.070000171661377,-42.4900016784668,-0.14000000059604645
1744304530.793,-6.510000228881836,-37.59000015258789,-2.940000057220459
1744304530.793,-4.480000019073486,-31.149999618530273,-5.110000133514404
1744304530.793,-1.4700000286102295,-24.850000381469727,-6.860000133514404
1744304530.868,1.8200000524520874,-20.860000610351562,-7.630000114440918
1744304530.868,2.5199999809265137,-19.670000076293945,-7.630000114440918
1744304530.868,3.1500000953674316,-19.809999465942383,-6.720000267028809
1744304530.868,3.9200000762939453,-19.600000381469727,-4.96999979019165
1744304530.868,4.269999980926514,-18.40999984741211,-2.380000114440918
1744304530.868,3.8499999046325684,-16.65999984741211,0.699999988079071
1744304530.868,3.569999933242798,-14.90999984741211,3.640000104904175
1744304530.868,4.130000114440918,-13.300000190734863,5.880000114440918
1744304530.942,1.8200000524520874,-12.739999771118164,6.929999828338623
1744304530.942,-0.5600000023841858,-12.949999809265137,6.440000057220459
1744304530.942,-2.1700000762939453,-13.020000457763672,5.039999961853027
1744304530.942,-2.5199999809265137,-11.199999809265137,3.3600001335144043
1744304530.942,-3.8499999046325684,-12.739999771118164,1.8899999856948853
1744304530.942,-6.019999980926514,-14.350000381469727,0.5600000023841858
1744304530.942,-3.2899999618530273,-13.369999885559082,-0.2800000011920929
1744304530.942,-1.3300000429153442,-13.15999984741211,0.49000000953674316
1744304531.016,-2.309999942779541,-12.8100004196167,1.6800000667572021
1744304531.016,-4.059999942779541,-13.15999984741211,2.799999952316284
1744304531.016,26.880001068115234,-22.190000534057617,-0.49000000953674316
1744304531.016,136.4300079345703,-49.06999969482422,-12.180000305175781
1744304531.016,240.94000244140625,-52.56999969482422,-20.510000228881836
1744304531.016,238.6999969482422,12.25,-0.14000000059604645
1744304531.016,-94.5,-94.56999969482422,10.359999656677246
1744304531.016,-46.54999923706055,-12.8100004196167,4.760000228881836
1744304531.09,-11.760000228881836,6.860000133514404,-0.21000000834465027
1744304531.09,-34.29999923706055,-36.119998931884766,-8.119999885559082
1744304531.09,-36.400001525878906,-44.59000015258789,-19.25
1744304531.09,-28.770000457763672,-39.619998931884766,-21.6299991607666
1744304531.09,-23.100000381469727,-40.040000915527344,-16.729999542236328
1744304531.09,-24.079999923706055,-39.619998931884766,-9.800000190734863
1744304531.09,-28.84000015258789,-40.7400016784668,-3.0799999237060547
1744304531.09,-23.3799991607666,-36.119998931884766,-1.190000057220459
1744304531.165,-13.020000457763672,-22.1200008392334,-2.5199999809265137
1744304531.165,-11.970000267028809,-15.329999923706055,-0.5600000023841858
1744304531.165,-10.5,-11.40999984741211,1.75
1744304531.165,-7.840000152587891,-10.430000305175781,2.7300000190734863
1744304531.165,-6.159999847412109,-13.020000457763672,3.640000104904175
1744304531.165,0.9100000262260437,-14.630000114440918,4.059999942779541
1744304531.165,6.440000057220459,-16.030000686645508,4.690000057220459
1744304531.165,9.3100004196167,-18.059999465942383,5.740000247955322
1744304531.239,12.319999694824219,-17.149999618530273,6.300000190734863
1744304531.239,13.720000267028809,-9.170000076293945,3.0799999237060547
1744304531.239,10.640000343322754,4.409999847412109,-3.1500000953674316
1744304531.239,2.6600000858306885,15.329999923706055,-9.100000381469727
1744304531.239,-4.409999847412109,24.56999969482422,-12.880000114440918
1744304531.239,-9.100000381469727,30.239999771118164,-14.5600004196167
1744304531.239,-16.450000762939453,38.0099983215332,-16.450000762939453
1744304531.239,-25.200000762939453,48.369998931884766,-20.510000228881836
1744304531.313,-29.96000099182129,46.40999984741211,-23.100000381469727
1744304531.313,-31.920000076293945,16.59000015258789,-23.170000076293945
1744304531.313,-20.299999237060547,-13.930000305175781,-23.170000076293945
1744304531.313,-0.6299999952316284,-28.700000762939453,-23.030000686645508
1744304531.313,6.510000228881836,-25.059999465942383,-21
1744304531.313,0.07000000029802322,-11.40999984741211,-15.119999885559082
1744304531.313,-4.829999923706055,-1.8200000524520874,-7.420000076293945
1744304531.313,-0.2800000011920929,21.770000457763672,-0.8400000333786011
1744304531.387,7.840000152587891,39.54999923706055,1.190000057220459
1744304531.387,12.529999732971191,41.439998626708984,0.21000000834465027
1744304531.387,12.109999656677246,34.86000061035156,-3.9200000762939453
1744304531.387,8.260000228881836,25.829999923706055,-10.289999961853027
1744304531.387,3.640000104904175,20.15999984741211,-14.770000457763672
1744304531.387,0,19.950000762939453,-16.65999984741211
1744304531.387,-1.3300000429153442,18.899999618530273,-14.90999984741211
1744304531.387,-1.2599999904632568,15.609999656677246,-12.949999809265137
1744304531.461,-1.3300000429153442,10.289999961853027,-12.180000305175781
1744304531.461,-1.3300000429153442,6.579999923706055,-10.569999694824219
1744304531.461,-0.9800000190734863,5.110000133514404,-10.640000343322754
1744304531.461,-0.14000000059604645,6.019999980926514,-16.450000762939453
1744304531.461,2.0999999046325684,4.96999979019165,-16.940000534057617
1744304531.461,6.440000057220459,3.8499999046325684,-15.329999923706055
1744304531.461,11.480000495910645,4.059999942779541,-15.260000228881836
1744304531.461,16.59000015258789,5.949999809265137,-13.859999656677246
1744304531.536,20.860000610351562,9.449999809265137,-11.899999618530273
1744304531.536,22.190000534057617,14.069999694824219,-9.59000015258789
1744304531.536,21.700000762939453,16.8700008392334,-6.019999980926514
1744304531.536,20.790000915527344,17.010000228881836,-2.7300000190734863
1744304531.536,20.09000015258789,15.260000228881836,-1.8899999856948853
1744304531.536,18.479999542236328,12.529999732971191,-1.6100000143051147
1744304531.536,17.149999618530273,10.010000228881836,-1.6800000667572021
1744304531.536,16.170000076293945,9.170000076293945,-2.240000009536743
1744304531.611,15.609999656677246,8.119999885559082,-3.430000066757202
1744304531.611,14.699999809265137,7.070000171661377,-4.480000019073486
1744304531.611,13.789999961853027,6.929999828338623,-5.110000133514404
1744304531.611,12.670000076293945,6.929999828338623,-5.53000020980835
1744304531.611,11.829999923706055,6.369999885559082,-5.320000171661377
1744304531.611,11.130000114440918,5.460000038146973,-5.460000038146973
1744304531.611,10.569999694824219,5.320000171661377,-5.880000114440918
1744304531.611,10.289999961853027,5.670000076293945,-6.019999980926514
1744304531.685,10.010000228881836,6.300000190734863,-6.929999828338623
1744304531.685,9.239999771118164,6.650000095367432,-8.050000190734863
1744304531.685,8.680000305175781,8.050000190734863,-9.65999984741211
1744304531.685,8.329999923706055,9.9399995803833,-11.270000457763672
1744304531.685,8.609999656677246,11.130000114440918,-13.230000495910645
1744304531.685,9.380000114440918,10.5,-14.140000343322754
1744304531.685,9.520000457763672,9.029999732971191,-13.369999885559082
1744304531.685,10.569999694824219,7.490000247955322,-11.0600004196167
1744304531.759,11.760000228881836,6.440000057220459,-8.960000038146973
1744304531.759,12.670000076293945,5.880000114440918,-6.929999828338623
1744304531.759,13.930000305175781,5.460000038146973,-4.550000190734863
1744304531.759,13.020000457763672,5.320000171661377,-3.569999933242798
1744304531.759,6.369999885559082,4.409999847412109,-6.789999961853027
1744304531.759,0.7699999809265137,3.2899999618530273,-8.399999618530273
1744304531.759,-8.960000038146973,1.6100000143051147,-15.960000038146973
1744304531.759,-22.049999237060547,1.5399999618530273,-33.7400016784668
1744304531.834,-14.279999732971191,8.75,-56.70000076293945
1744304531.834,-20.020000457763672,5.110000133514404,-44.52000045776367
1744304531.834,-21.90999984741211,0.7699999809265137,-37.17000198364258
1744304531.834,-24.290000915527344,-11.899999618530273,-61.529998779296875
1744304531.834,-33.67000198364258,-8.260000228881836,-30.030000686645508
1744304531.834,-18.479999542236328,-0.9100000262260437,-4.480000019073486
1744304531.834,-15.470000267028809,-1.4700000286102295,3.1500000953674316
1744304531.834,-16.3799991607666,4.340000152587891,5.53000020980835
1744304531.908,-10.710000038146973,1.8200000524520874,3.009999990463257
1744304531.908,-2.870000123977661,-1.399999976158142,3.0799999237060547
1744304531.908,-2.940000057220459,-1.8899999856948853,4.130000114440918
1744304531.908,-10.010000228881836,-2.870000123977661,6.720000267028809
1744304531.908,-13.300000190734863,-3.2899999618530273,6.860000133514404
1744304531.908,-26.31999969482422,3.0799999237060547,10.5
1744304531.908,-32.20000076293945,-3.990000009536743,9.170000076293945
1744304531.908,-31.43000030517578,-12.880000114440918,4.760000228881836
1744304531.982,-19.530000686645508,-13.789999961853027,3.569999933242798
1744304531.982,-1.1200000047683716,-9.520000457763672,4.690000057220459
1744304531.982,-16.450000762939453,-8.050000190734863,5.110000133514404
1744304531.982,-28.420000076293945,-4.829999923706055,2.1700000762939453
1744304531.982,-28.979999542236328,-3.009999990463257,0.07000000029802322
1744304531.982,-23.799999237060547,0.49000000953674316,-1.2599999904632568
1744304531.982,-19.950000762939453,4.619999885559082,-1.9600000381469727
1744304531.982,-24.850000381469727,6.650000095367432,-0.8400000333786011
1744304532.056,-27.579999923706055,7.630000114440918,2.0299999713897705
1744304532.056,-24.149999618530273,7.070000171661377,4.690000057220459
1744304532.056,-18.1299991607666,9.170000076293945,6.230000019073486
1744304532.056,-19.31999969482422,4.340000152587891,7.28000020980835
1744304532.056,-17.850000381469727,3.9200000762939453,9.3100004196167
1744304532.056,-19.25,1.9600000381469727,9.800000190734863
1744304532.056,-21.139999389648438,0,10.289999961853027
1744304532.056,-16.940000534057617,-2.450000047683716,10.850000381469727
1744304532.13,-11.760000228881836,-5.880000114440918,11.0600004196167
1744304532.13,-10.850000381469727,-7.559999942779541,11.970000267028809
1744304532.13,-10.430000305175781,-8.890000343322754,11.0600004196167
1744304532.13,-7.769999980926514,-11.40999984741211,8.819999694824219
1744304532.13,-9.380000114440918,-12.529999732971191,6.929999828338623
1744304532.13,-10.779999732971191,-13.720000267028809,5.599999904632568
1744304532.13,-10.010000228881836,-14.279999732971191,3.569999933242798
1744304532.13,-8.75,-12.600000381469727,-0.3499999940395355
1744304532.205,-2.309999942779541,-11.199999809265137,-4.409999847412109
1744304532.205,7.349999904632568,-9.869999885559082,-7.210000038146973
1744304532.205,12.670000076293945,-9.730000495910645,-7
1744304532.205,16.100000381469727,-5.809999942779541,-7.349999904632568
1744304532.205,19.600000381469727,-4.130000114440918,-8.1899995803833
1744304532.205,20.579999923706055,-2.799999952316284,-9.239999771118164
1744304532.205,28.630001068115234,2.309999942779541,-10.779999732971191
1744304532.205,24.290000915527344,4.690000057220459,-9.380000114440918
1744304532.279,21.280000686645508,11.0600004196167,-8.119999885559082
1744304532.279,43.88999938964844,21.90999984741211,-9.170000076293945
1744304532.279,57.470001220703125,18.969999313354492,-10.779999732971191
1744304532.279,32.83000183105469,5.53000020980835,-9.9399995803833
1744304532.279,13.930000305175781,-6.019999980926514,-5.320000171661377
1744304532.279,9.3100004196167,-28.139999389648438,-2.240000009536743
1744304532.279,4.760000228881836,-29.469999313354492,-0.9100000262260437
1744304532.279,13.020000457763672,-9.800000190734863,4.550000190734863
1744304532.353,23.3799991607666,6.720000267028809,8.260000228881836
1744304532.353,20.3700008392334,9.869999885559082,9.520000457763672
1744304532.353,14.84000015258789,13.789999961853027,8.609999656677246
1744304532.353,14.90999984741211,18.270000457763672,7.840000152587891
1744304532.353,21.770000457763672,25.549999237060547,4.760000228881836
1744304532.353,21.90999984741211,25.479999542236328,0.14000000059604645
1744304532.353,11.550000190734863,27.299999237060547,-1.3300000429153442
1744304532.353,3.990000009536743,25.1299991607666,-1.1200000047683716
1744304532.427,0.2800000011920929,31.149999618530273,0.42000001668930054
1744304532.427,0,31.780000686645508,3.2200000286102295
1744304532.427,-6.440000057220459,28.139999389648438,3.7799999713897705
1744304532.427,-11.480000495910645,26.530000686645508,3.7799999713897705
1744304532.427,-8.539999961853027,26.739999771118164,4.619999885559082
1744304532.427,-8.260000228881836,25.1299991607666,6.720000267028809
1744304532.427,-12.460000038146973,21.979999542236328,8.539999961853027
1744304532.427,-10.850000381469727,23.520000457763672,7.490000247955322
1744304532.501,-6.860000133514404,28.139999389648438,5.460000038146973
1744304532.501,-8.399999618530273,32.27000045776367,4.340000152587891
1744304532.501,-8.680000305175781,33.810001373291016,3.7799999713897705
1744304532.501,-5.460000038146973,35.349998474121094,3.569999933242798
1744304532.501,-3.7799999713897705,36.88999938964844,3.3600001335144043
1744304532.501,-4.199999809265137,36.189998626708984,2.940000057220459
1744304532.501,-4.550000190734863,35.349998474121094,3.0799999237060547
1744304532.501,-3.1500000953674316,36.470001220703125,3.7799999713897705
1744304532.576,-2.0999999046325684,36.33000183105469,5.25
1744304532.576,-1.6100000143051147,36.119998931884766,7
1744304532.576,-5.110000133514404,32.20000076293945,8.819999694824219
1744304532.576,-8.050000190734863,28.06999969482422,10.220000267028809
1744304532.576,-6.579999923706055,28.280000686645508,11.0600004196167
1744304532.576,-4.760000228881836,31.219999313354492,13.15999984741211
1744304532.576,-5.740000247955322,33.38999938964844,14.350000381469727
1744304532.576,-7.070000171661377,32.689998626708984,15.119999885559082
1744304532.65,-8.539999961853027,29.96000099182129,14.84000015258789
1744304532.65,-9.100000381469727,24.639999389648438,13.579999923706055
1744304532.65,-9.239999771118164,19.809999465942383,13.369999885559082
1744304532.65,-7.840000152587891,12.460000038146973,18.059999465942383
1744304532.65,-4.269999980926514,21.559999465942383,13.230000495910645
1744304532.65,-1.0499999523162842,20.790000915527344,9.800000190734863
1744304532.65,-0.42000001668930054,20.510000228881836,11.550000190734863
1744304532.65,4.760000228881836,18.969999313354492,11.0600004196167
1744304532.724,10.5,15.539999961853027,9.9399995803833
1744304532.724,10.430000305175781,15.119999885559082,8.470000267028809
1744304532.724,11.6899995803833,15.119999885559082,7.769999980926514
1744304532.724,12.600000381469727,15.609999656677246,7.909999847412109
1744304532.724,11.34000015258789,13.230000495910645,8.399999618530273
1744304532.724,13.020000457763672,12.8100004196167,7.490000247955322
1744304532.724,12.949999809265137,12.739999771118164,6.090000152587891
1744304532.724,11.619999885559082,12.600000381469727,3.990000009536743
1744304532.798,10.710000038146973,12.039999961853027,1.399999976158142
1744304532.798,9.59000015258789,11.899999618530273,0.7699999809265137
1744304532.798,8.680000305175781,12.739999771118164,0.3499999940395355
1744304532.798,9.800000190734863,13.230000495910645,-0.5600000023841858
1744304532.798,7.28000020980835,12.460000038146973,-2.380000114440918
1744304532.798,7.699999809265137,9.59000015258789,-2.5199999809265137
1744304532.798,9.520000457763672,6.090000152587891,-2.5199999809265137
1744304532.798,8.1899995803833,4.059999942779541,-3.3600001335144043
1744304532.873,6.300000190734863,3.2899999618530273,-3.7100000381469727
1744304532.873,2.380000114440918,3.2200000286102295,-2.940000057220459
1744304532.873,-0.42000001668930054,3.1500000953674316,-3.009999990463257
1744304532.873,-3.2200000286102295,2.5199999809265137,-3.3600001335144043
1744304532.873,-5.25,-0.3499999940395355,-3.430000066757202
1744304532.873,-7.28000020980835,-2.1700000762939453,-5.25
1744304532.873,-8.609999656677246,-5.670000076293945,-6.650000095367432
1744304532.873,-6.929999828338623,-11.40999984741211,-9.65999984741211
1744304532.947,2.1700000762939453,-13.300000190734863,-14.279999732971191
1744304532.947,2.6600000858306885,-13.15999984741211,-17.989999771118164
1744304532.947,0.2800000011920929,-5.880000114440918,-13.789999961853027
1744304532.947,0.5600000023841858,-4.340000152587891,-8.75
1744304532.947,-3.0799999237060547,-14.84000015258789,-7.840000152587891
1744304532.947,-5.949999809265137,-21.700000762939453,-9.3100004196167
1744304532.947,-0.8400000333786011,-21.139999389648438,-13.300000190734863
1744304532.947,-2.0999999046325684,-21.979999542236328,-17.010000228881836
1744304533.021,-13.020000457763672,-23.729999542236328,-13.579999923706055
1744304533.021,-18.969999313354492,-16.799999237060547,-9.449999809265137
1744304533.021,-18.549999237060547,-13.440000534057617,-3.5
1744304533.021,-18.1299991607666,-14.5600004196167,-6.579999923706055
1744304533.021,-14.90999984741211,-17.920000076293945,-8.539999961853027
1744304533.021,-15.680000305175781,-19.389999389648438,-5.25
1744304533.021,-16.100000381469727,-15.260000228881836,-3.009999990463257
1744304533.021,-11.899999618530273,-7.769999980926514,-3.2899999618530273
1744304533.096,-10.220000267028809,2.5899999141693115,-3.1500000953674316
1744304533.096,-7.28000020980835,9.800000190734863,-1.9600000381469727
1744304533.096,-2.5199999809265137,12.8100004196167,-2.5899999141693115
1744304533.096,3.990000009536743,11.270000457763672,-6.159999847412109
1744304533.096,9.170000076293945,9.100000381469727,-10.220000267028809
1744304533.096,8.890000343322754,11.34000015258789,-12.109999656677246
1744304533.096,2.0299999713897705,13.440000534057617,-11.970000267028809
1744304533.096,5.599999904632568,16.100000381469727,-9.869999885559082
1744304533.17,8.680000305175781,16.59000015258789,-7.139999866485596
1744304533.17,11.130000114440918,16.65999984741211,-5.110000133514404
1744304533.17,8.680000305175781,18.690000534057617,-3.3600001335144043
1744304533.17,3.1500000953674316,18.6200008392334,-3.2200000286102295
1744304533.17,0.49000000953674316,16.8700008392334,-2.5899999141693115
1744304533.17,-2.380000114440918,14.770000457763672,-1.2599999904632568
1744304533.17,-6.789999961853027,14.069999694824219,-0.9800000190734863
1744304533.17,-12.039999961853027,14.699999809265137,-1.190000057220459
1744304533.245,-14.699999809265137,16.3799991607666,-0.7699999809265137
1744304533.245,-16.170000076293945,19.530000686645508,0.49000000953674316
1744304533.245,-12.949999809265137,22.399999618530273,0.3499999940395355
1744304533.245,-7.490000247955322,24.079999923706055,-1.8200000524520874
1744304533.245,-1.3300000429153442,27.649999618530273,-3.7799999713897705
1744304533.245,1.9600000381469727,25.479999542236328,-5.25
1744304533.245,7.909999847412109,24.149999618530273,-6.579999923706055
1744304533.245,12.949999809265137,22.96000099182129,-8.609999656677246
1744304533.319,16.030000686645508,19.25,-9.59000015258789
1744304533.319,17.43000030517578,18.760000228881836,-10.430000305175781
1744304533.319,18.200000762939453,18.690000534057617,-11.270000457763672
1744304533.319,18.690000534057617,19.110000610351562,-12.600000381469727
1744304533.319,14.84000015258789,18.200000762939453,-13.789999961853027
1744304533.319,12.8100004196167,15.539999961853027,-16.940000534057617
1744304533.319,13.579999923706055,12.739999771118164,-17.290000915527344
1744304533.319,11.199999809265137,9.65999984741211,-13.720000267028809
1744304533.393,8.539999961853027,8.890000343322754,-9.869999885559082
1744304533.393,1.0499999523162842,8.399999618530273,-4.409999847412109
1744304533.393,-4.760000228881836,4.550000190734863,1.9600000381469727
1744304533.393,-5.949999809265137,0.9100000262260437,5.880000114440918
1744304533.393,-4.340000152587891,-1.4700000286102295,6.720000267028809
1744304533.393,-0.699999988079071,-4.480000019073486,7.139999866485596
1744304533.393,2.309999942779541,-4.900000095367432,7.28000020980835
1744304533.393,6.650000095367432,-5.110000133514404,5.53000020980835
1744304533.467,8.260000228881836,-7.840000152587891,3.8499999046325684
1744304533.467,4.96999979019165,-10.149999618530273,3.640000104904175
1744304533.467,3.1500000953674316,-11.899999618530273,4.059999942779541
1744304533.467,4.059999942779541,-14.279999732971191,4.199999809265137
1744304533.467,8.399999618530273,-16.309999465942383,3.7799999713897705
1744304533.467,9.380000114440918,-18.270000457763672,2.940000057220459
1744304533.467,11.619999885559082,-17.56999969482422,1.75
1744304533.467,15.399999618530273,-15.960000038146973,0.3499999940395355
1744304533.542,14.489999771118164,-13.930000305175781,-0.2800000011920929
1744304533.542,17.010000228881836,-11.0600004196167,0.9800000190734863
1744304533.542,31.56999969482422,-7.909999847412109,0.07000000029802322
1744304533.542,41.22999954223633,-5.53000020980835,-2.1700000762939453
1744304533.542,32.060001373291016,-8.609999656677246,-2.940000057220459
1744304533.542,27.719999313354492,-10.010000228881836,2.6600000858306885
1744304533.542,22.75,-10.010000228881836,8.609999656677246
1744304533.542,13.15999984741211,-7,11.899999618530273
1744304533.616,3.7100000381469727,-11.0600004196167,13.440000534057617
1744304533.616,-4.340000152587891,-19.809999465942383,14.84000015258789
1744304533.616,-15.050000190734863,-28.06999969482422,13.440000534057617
1744304533.616,-20.510000228881836,-33.040000915527344,10.850000381469727
1744304533.616,5.949999809265137,-34.720001220703125,11.970000267028809
1744304533.616,9.029999732971191,-22.540000915527344,18.479999542236328
1744304533.616,-19.389999389648438,-2.1700000762939453,26.809999465942383
1744304533.616,-33.95000076293945,11.480000495910645,26.040000915527344
1744304533.69,-40.18000030517578,13.15999984741211,19.25
1744304533.69,-32.20000076293945,11.619999885559082,9.59000015258789
1744304533.69,-14.140000343322754,8.050000190734863,1.8899999856948853
1744304533.69,-6.720000267028809,2.870000123977661,1.8200000524520874
1744304533.69,-16.940000534057617,1.5399999618530273,5.599999904632568
1744304533.69,-23.3799991607666,-2.450000047683716,10.079999923706055
1744304533.69,-31.079999923706055,-5.53000020980835,15.470000267028809
1744304533.69,-31.989999771118164,-13.020000457763672,14.140000343322754
1744304533.764,-11.899999618530273,-15.680000305175781,10.989999771118164
1744304533.764,-2.0999999046325684,-19.25,7.630000114440918
1744304533.764,-8.75,-17.71000099182129,5.179999828338623
1744304533.764,-10.779999732971191,-11.480000495910645,0.9800000190734863
1744304533.764,-7.349999904632568,-5.389999866485596,-0.8400000333786011
1744304533.764,-5.389999866485596,-0.2800000011920929,-2.380000114440918
1744304533.764,-1.399999976158142,-2.309999942779541,-4.409999847412109
1744304533.764,2.1700000762939453,-8.960000038146973,-2.940000057220459
1744304533.838,6.369999885559082,-11.619999885559082,-2.940000057220459
1744304533.838,7.28000020980835,-15.609999656677246,-2.1700000762939453
1744304533.838,6.929999828338623,-15.329999923706055,0.07000000029802322
1744304533.838,1.399999976158142,-17.850000381469727,2.799999952316284
1744304533.838,1.0499999523162842,-17.920000076293945,6.369999885559082
1744304533.838,-2.380000114440918,-18.549999237060547,8.609999656677246
1744304533.838,-7.980000019073486,-17.989999771118164,10.359999656677246
1744304533.838,-8.609999656677246,-15.260000228881836,10.010000228881836
1744304533.913,-7.490000247955322,-11.899999618530273,10.430000305175781
1744304533.913,-8.890000343322754,-8.75,10.779999732971191
1744304533.913,-11.6899995803833,-5.670000076293945,11.619999885559082
1744304533.913,-10.5,-2.450000047683716,12.319999694824219
1744304533.913,-8.960000038146973,-0.8400000333786011,13.230000495910645
1744304533.913,-7.980000019073486,0.21000000834465027,14.699999809265137
1744304533.913,-5.039999961853027,0.8400000333786011,15.050000190734863
1744304533.913,-1.4700000286102295,1.399999976158142,15.75
1744304533.987,6.440000057220459,1.8899999856948853,16.520000457763672
1744304533.987,10.5,2.309999942779541,16.8700008392334
1744304533.987,10.989999771118164,2.450000047683716,16.729999542236328
1744304533.987,13.020000457763672,2.0299999713897705,15.399999618530273
1744304533.987,13.09000015258789,1.6100000143051147,13.440000534057617
1744304533.987,13.15999984741211,2.5899999141693115,10.779999732971191
1744304533.987,13.440000534057617,4.619999885559082,8.329999923706055
1744304533.987,15.050000190734863,6.789999961853027,6.300000190734863
1744304534.061,15.609999656677246,8.260000228881836,5.389999866485596
1744304534.061,14.980000495910645,8.050000190734863,5.599999904632568
1744304534.061,14.5600004196167,6.300000190734863,5.740000247955322
1744304534.061,14.980000495910645,4.550000190734863,6.090000152587891
1744304534.061,15.119999885559082,3.990000009536743,7.070000171661377
1744304534.061,14.279999732971191,3.8499999046325684,7.980000019073486
1744304534.061,13.510000228881836,4.690000057220459,8.539999961853027
1744304534.061,13.09000015258789,5.179999828338623,8.960000038146973
1744304534.135,12.180000305175781,5.389999866485596,9.65999984741211
1744304534.135,10.010000228881836,6.159999847412109,10.289999961853027
1744304534.135,8.399999618530273,7.28000020980835,11.130000114440918
1744304534.135,6.789999961853027,7.630000114440918,12.390000343322754
1744304534.135,6.019999980926514,6.789999961853027,13.789999961853027
1744304534.135,4.480000019073486,5.670000076293945,14.84000015258789
1744304534.135,4.760000228881836,9.869999885559082,14.210000038146973
1744304534.135,5.039999961853027,12.670000076293945,14
1744304534.209,0.9100000262260437,10.289999961853027,14.210000038146973
1744304534.209,-1.9600000381469727,6.860000133514404,14
1744304534.209,-4.480000019073486,8.119999885559082,14.350000381469727
1744304534.209,-6.019999980926514,7.909999847412109,15.329999923706055
1744304534.209,-7.070000171661377,8.890000343322754,14.279999732971191
1744304534.209,-7.840000152587891,10.220000267028809,13.230000495910645
1744304534.209,-9.029999732971191,13.020000457763672,12.460000038146973
1744304534.209,-10.5,14.90999984741211,11.550000190734863
1744304534.284,-12.109999656677246,15.960000038146973,10.569999694824219
1744304534.284,-14.699999809265137,16.309999465942383,9.65999984741211
1744304534.284,-20.09000015258789,15.260000228881836,8.680000305175781
1744304534.284,-30.450000762939453,7.349999904632568,7.420000076293945
1744304534.284,-33.529998779296875,2.309999942779541,6.650000095367432
1744304534.284,-23.100000381469727,2.5199999809265137,7
1744304534.284,-22.190000534057617,5.179999828338623,7.630000114440918
1744304534.284,-25.34000015258789,6.510000228881836,9.3100004196167
1744304534.358,-28.350000381469727,6.090000152587891,10.920000076293945
1744304534.358,-26.18000030517578,5.670000076293945,10.779999732971191
1744304534.358,-19.739999771118164,7.909999847412109,9.520000457763672
1744304534.358,-13.369999885559082,11.6899995803833,7.139999866485596
1744304534.358,-10.569999694824219,15.399999618530273,3.9200000762939453
1744304534.358,-9.380000114440918,19.040000915527344,0.6299999952316284
1744304534.358,-7.909999847412109,23.8700008392334,-2.380000114440918
1744304534.358,-6.159999847412109,29.329999923706055,-4.900000095367432
1744304534.432,-3.8499999046325684,32.40999984741211,-6.230000019073486
1744304534.432,-0.14000000059604645,32.970001220703125,-5.53000020980835
1744304534.432,1.9600000381469727,32.54999923706055,-3.7100000381469727
1744304534.432,4.96999979019165,29.1200008392334,-0.8400000333786011
1744304534.432,7.139999866485596,26.31999969482422,1.8200000524520874
1744304534.432,8.119999885559082,24.079999923706055,3.2899999618530273
1744304534.432,8.75,22.190000534057617,4.760000228881836
1744304534.432,8.960000038146973,20.93000030517578,5.880000114440918
1744304534.506,9.65999984741211,20.93000030517578,7.139999866485596
1744304534.506,9.380000114440918,21.420000076293945,7
1744304534.506,8.050000190734863,21.84000015258789,5.110000133514404
1744304534.506,6.440000057220459,21.84000015258789,1.1200000047683716
1744304534.506,3.009999990463257,22.68000030517578,-4.130000114440918
1744304534.506,0.21000000834465027,24.219999313354492,-9.449999809265137
1744304534.506,-2.380000114440918,25.549999237060547,-14.140000343322754
1744304534.506,-4.480000019073486,25.6200008392334,-17.56999969482422
1744304534.581,-4.199999809265137,25.690000534057617,-19.739999771118164
1744304534.581,-4.130000114440918,25.1299991607666,-20.719999313354492
1744304534.581,-3.7799999713897705,23.450000762939453,-20.719999313354492
1744304534.581,-3.3600001335144043,20.3700008392334,-19.670000076293945
1744304534.581,-3.5,16.729999542236328,-18.200000762939453
1744304534.581,-2.309999942779541,13.649999618530273,-17.56999969482422
1744304534.581,-2.940000057220459,11.270000457763672,-16.799999237060547
1744304534.581,-2.309999942779541,9.100000381469727,-15.960000038146973
1744304534.656,0.14000000059604645,7.559999942779541,-15.609999656677246
1744304534.656,0.699999988079071,5.460000038146973,-15.399999618530273
1744304534.656,-0.07000000029802322,3.1500000953674316,-15.329999923706055
1744304534.656,1.8200000524520874,0.699999988079071,-15.329999923706055
1744304534.656,2.870000123977661,-1.6100000143051147,-15.190000534057617
1744304534.656,2.240000009536743,-3.990000009536743,-14.210000038146973
1744304534.656,2.6600000858306885,-6.440000057220459,-12.8100004196167
1744304534.656,1.6800000667572021,-8.75,-11.270000457763672
1744304534.73,1.6800000667572021,-11.829999923706055,-9.59000015258789
1744304534.73,1.399999976158142,-15.329999923706055,-7.559999942779541
1744304534.73,2.380000114440918,-16.59000015258789,-5.460000038146973
