                                                                                LinearAcceleration                                                              10.04.2519.43.20104 
Timestamp,AccX,AccY,AccZ
1744304518.939,-1.3543859720230103,10.916446685791016,5.053822040557861
1744304518.939,-2.368978977203369,11.117450714111328,5.159110069274902
1744304518.939,-2.9911351203918457,11.447671890258789,4.833674430847168
1744304518.939,-2.5460541248321533,11.184452056884766,4.197160720825195
1744304518.939,-3.3357138633728027,11.170095443725586,2.3450498580932617
1744304518.939,-2.8140599727630615,10.643654823303223,2.0291860103607178
1744304518.939,-0.15314611792564392,10.117215156555176,2.8284173011779785
1744304518.939,1.9382555484771729,10.074143409729004,3.589362144470215
1744304519.013,2.292405843734741,8.42782211303711,4.417308330535889
1744304519.013,0.363722026348114,7.5998759269714355,5.259612083435059
1744304519.013,-2.536482572555542,7.666877746582031,5.967912673950195
1744304519.013,-2.8858470916748047,7.327084541320801,6.896361351013184
1744304519.013,-2.8427748680114746,7.504159927368164,7.0830078125
1744304519.013,-2.28283429145813,8.22203254699707,6.374707221984863
1744304519.013,-1.928683876991272,9.265339851379395,5.671192169189453
1744304519.013,-1.0241646766662598,10.01671314239502,5.116037368774414
1744304519.087,-0.5168681740760803,10.145930290222168,4.886318206787109
1744304519.087,0.43550926446914673,9.64341926574707,4.56566858291626
1744304519.087,0.904519259929657,9.394556999206543,4.067943572998047
1744304519.087,0.5551546812057495,8.76761531829834,4.431665897369385
1744304519.087,-0.0909305065870285,9.327555656433105,4.091872692108154
1744304519.087,-1.4596738815307617,8.982976913452148,4.1205878257751465
1744304519.087,-2.268476963043213,9.404129028320312,4.154088497161865
1744304519.087,-3.5462896823883057,9.676919937133789,4.010513782501221
1744304519.161,-3.2782840728759766,9.710420608520508,3.8477962017059326
1744304519.161,-3.1873536109924316,8.858545303344727,3.5797905921936035
1744304519.161,-2.086615800857544,9.064335823059082,3.1586387157440186
1744304519.161,-1.6846072673797607,8.719757080078125,2.732701063156128
1744304519.161,-0.9571632146835327,8.0736722946167,2.718343496322632
1744304519.161,-0.3732936680316925,6.767144203186035,2.6082699298858643
1744304519.161,-0.1005021408200264,7.365371227264404,2.684842824935913
1744304519.161,-0.03828652948141098,6.704928398132324,2.833203077316284
1744304519.236,-0.11007377505302429,7.70037841796875,2.881061315536499
1744304519.236,-0.9428057670593262,7.475444793701172,3.1299238204956055
1744304519.236,-1.5123178958892822,8.346463203430176,3.1586387157440186
1744304519.236,-1.5362470149993896,8.346463203430176,3.374000310897827
1744304519.236,-1.7085363864898682,8.872902870178223,3.584576368331909
1744304519.236,-1.7324655055999756,9.389771461486816,3.239997625350952
1744304519.236,-0.9571632146835327,9.423272132873535,3.0964231491088867
1744304519.236,-0.6652284264564514,9.581204414367676,3.0102784633636475
1744304519.31,-0.41636601090431213,9.102622032165527,2.924133777618408
1744304519.31,-0.07657305896282196,8.76761531829834,2.7422726154327393
1744304519.31,0.45943835377693176,8.57618236541748,2.7709875106811523
1744304519.31,0.37807947397232056,8.107172966003418,2.641770601272583
1744304519.31,-0.6365135312080383,8.092815399169922,2.6561279296875
1744304519.31,-1.9238981008529663,8.049742698669434,2.7422726154327393
1744304519.31,-2.703986167907715,8.097600936889648,3.0964231491088867
1744304519.31,-3.182567834854126,8.437394142150879,2.8475606441497803
1744304519.384,-3.0533506870269775,8.868117332458496,2.9193477630615234
1744304519.384,-2.2158329486846924,9.346698760986328,2.6609137058258057
1744304519.384,-1.2203831672668457,9.542917251586914,2.268476963043213
1744304519.384,-0.6173703074455261,9.849209785461426,1.8425391912460327
1744304519.384,-0.746587336063385,10.07892894744873,1.3926725387573242
1744304519.384,-1.148595929145813,10.25121784210205,1.7276796102523804
1744304519.384,-0.9810923337936401,10.189002990722656,0.8518753051757812
1744304519.384,-1.3017419576644897,9.949711799621582,0.9667348861694336
1744304519.458,-1.3687434196472168,9.65299129486084,0.9810923337936401
1744304519.458,-1.584105134010315,9.724778175354004,3.2208542823791504
1744304519.458,-1.1007376909255981,9.394556999206543,3.752079963684082
1744304519.458,-0.17707519233226776,9.777422904968262,5.202182292938232
1744304519.458,0.07657305896282196,11.48595905303955,6.3699212074279785
1744304519.458,1.3208853006362915,12.261260986328125,6.489566802978516
1744304519.458,1.7228938341140747,12.165544509887695,6.623569488525391
1744304519.458,1.2490980625152588,12.179902076721191,6.9107184410095215
1744304519.532,-0.9284483194351196,12.323476791381836,6.604426383972168
1744304519.532,-1.6558923721313477,9.71520709991455,6.7767157554626465
1744304519.532,-1.7037506103515625,8.537896156311035,6.618783950805664
1744304519.532,-1.5793193578720093,7.537660598754883,6.661856174468994
1744304519.532,-1.6750357151031494,6.8054304122924805,6.4321370124816895
1744304519.532,-1.1438100337982178,6.192846298217773,6.2981343269348145
1744304519.532,0.11964540183544159,7.236154079437256,6.001413345336914
1744304519.532,1.0863802433013916,8.370392799377441,6.1306304931640625
1744304519.607,1.3496001958847046,9.853995323181152,6.628355503082275
1744304519.607,1.5888910293579102,11.686963081359863,6.67621374130249
1744304519.607,1.7324655055999756,13.165780067443848,6.546996593475342
1744304519.607,1.689393162727356,13.347640991210938,6.125844955444336
1744304519.607,1.876039981842041,13.127493858337402,5.814766883850098
1744304519.607,1.6558923721313477,11.720463752746582,5.623333930969238
1744304519.607,1.072022795677185,10.524009704589844,5.5898332595825195
1744304519.607,0.11964540183544159,10.418722152709961,5.345756530761719
1744304519.681,-0.3541503846645355,9.480701446533203,4.742743968963623
1744304519.681,-0.8518753051757812,8.446965217590332,4.603955268859863
1744304519.681,-0.45943835377693176,7.513731479644775,4.000942230224609
1744304519.681,0.40679436922073364,6.063629150390625,3.9722273349761963
1744304519.681,0.05742979422211647,6.6092119216918945,3.823867082595825
1744304519.681,0.03828652948141098,7.202653408050537,3.7760090827941895
1744304519.681,-0.06700142472982407,7.284012317657471,3.479288339614868
1744304519.681,0.1722893863916397,7.997098922729492,3.5510756969451904
1744304519.755,0.6269419193267822,8.944690704345703,3.4410018920898438
1744304519.755,1.2586696147918701,8.968619346618652,3.2017109394073486
1744304519.755,1.3256710767745972,8.595325469970703,3.182567834854126
1744304519.755,0.6412993669509888,8.451751708984375,3.134709596633911
1744304519.755,0.36850783228874207,8.346463203430176,2.818845748901367
1744304519.755,0.16271774470806122,8.614469528198242,2.852346420288086
1744304519.755,0.10528795421123505,8.418251037597656,2.7231295108795166
1744304519.755,0.08614469319581985,8.753257751464844,2.684842824935913
1744304519.829,0.3350071310997009,8.557039260864258,2.718343496322632
1744304519.829,0.13400284945964813,8.643183708190918,2.6561279296875
1744304519.829,0.38765111565589905,8.528324127197266,2.6034839153289795
1744304519.829,0.44029510021209717,8.466109275817871,2.6561279296875
1744304519.829,0.5599405169487,8.174174308776855,2.6561279296875
1744304519.829,0.8614469170570374,8.805901527404785,2.373764753341675
1744304519.829,0.19621846079826355,8.312962532043457,3.043779134750366
1744304519.829,0.7322298884391785,8.557039260864258,2.7997024059295654
1744304519.903,-0.01914326474070549,8.475680351257324,2.9337053298950195
1744304519.903,0.8614469170570374,8.418251037597656,2.115330696105957
1744304519.903,0.11485958844423294,9.002120018005371,2.3163349628448486
1744304519.903,0.5599405169487,8.509181022644043,2.191903829574585
1744304519.903,0.9906639456748962,8.418251037597656,2.3211207389831543
1744304519.903,0.49772489070892334,8.810688018798828,1.9717562198638916
1744304519.903,0.7130866050720215,9.681706428527832,1.1150951385498047
1744304519.903,-0.39722275733947754,8.566611289978027,1.3926725387573242
1744304519.978,0.11007377505302429,8.494823455810547,1.5362470149993896
1744304519.978,-0.11007377505302429,8.734114646911621,1.3304568529129028
1744304519.978,-0.3110780417919159,9.102622032165527,1.2778129577636719
1744304519.978,-0.2823631465435028,9.442415237426758,1.1916682720184326
1744304519.978,-0.11007377505302429,9.600347518920898,1.268241286277771
1744304519.978,0.22493335604667664,9.887495994567871,1.3974583148956299
1744304519.978,0.4737958014011383,10.011927604675293,1.5075321197509766
1744304519.978,0.4737958014011383,10.117215156555176,1.6750357151031494
1744304520.052,0.7370156645774841,10.179430961608887,1.9382555484771729
1744304520.052,0.6460852026939392,10.332576751708984,2.129688262939453
1744304520.052,0.6556568145751953,10.567082405090332,2.191903829574585
1744304520.052,1.2347406148910522,11.08395004272461,2.8284173011779785
1744304520.052,1.5888910293579102,11.768321990966797,3.8765110969543457
1744304520.052,1.3639576435089111,12.275618553161621,4.240232944488525
1744304520.052,-0.4259376525878906,12.591482162475586,5.374471664428711
1744304520.052,-1.770751953125,13.519930839538574,5.446259021759033
1744304520.126,-2.3785505294799805,14.256946563720703,4.666170597076416
1744304520.126,-2.5029819011688232,15.12317943572998,3.87172532081604
1744304520.126,-1.5888910293579102,15.821907997131348,3.4266443252563477
1744304520.126,-0.3445787727832794,15.625689506530762,3.4601449966430664
1744304520.126,1.1007376909255981,14.721170425415039,3.8525819778442383
1744304520.126,1.799466848373413,13.433786392211914,4.302448749542236
1744304520.126,1.8999689817428589,11.868824005126953,5.001177787780762
1744304520.126,1.454888105392456,10.083714485168457,5.374471664428711
1744304520.2,0.7753022313117981,9.140909194946289,5.317041873931885
1744304520.2,0.10528795421123505,9.64341926574707,5.498902797698975
1744304520.2,-0.35893622040748596,10.07892894744873,5.9200544357299805
1744304520.2,-1.3256710767745972,10.122001647949219,6.144988059997559
1744304520.2,-1.4213874340057373,9.758278846740723,6.307705879211426
1744304520.2,-0.6365135312080383,9.179195404052734,6.546996593475342
1744304520.2,0.3302213251590729,8.638398170471191,6.637927055358887
1744304520.2,0.15314611792564392,8.700613975524902,6.5661396980285645
1744304520.275,-0.7561589479446411,8.662327766418457,6.484780788421631
1744304520.275,0.30629223585128784,8.33210563659668,6.331634998321533
1744304520.275,-2.10097336769104,8.15024471282959,6.513495922088623
1744304520.275,-1.8042527437210083,7.949240684509277,6.3699212074279785
1744304520.275,-1.8856115341186523,7.173938274383545,6.226346969604492
1744304520.275,-1.8233959674835205,7.193081855773926,6.2359185218811035
1744304520.275,-1.4692455530166626,7.111722946166992,6.0253424644470215
1744304520.275,-2.0052568912506104,7.432372570037842,5.766908645629883
1744304520.349,-2.057900905609131,7.571161270141602,5.575475692749023
1744304520.349,-1.742037057876587,7.848738670349121,5.230896949768066
1744304520.349,-1.8616825342178345,7.5998759269714355,4.891104221343994
1744304520.349,-1.7276796102523804,7.188295841217041,4.5704545974731445
1744304520.349,-1.387886643409729,6.5804972648620605,4.216303825378418
1744304520.349,-0.4833674430847168,7.427586555480957,4.221089839935303
1744304520.349,0.3110780417919159,7.336656093597412,4.0583720207214355
1744304520.349,0.28714898228645325,7.523303031921387,4.158874034881592
1744304520.423,0.2823631465435028,7.729093074798584,4.221089839935303
1744304520.423,-0.07657305896282196,7.619019508361816,4.115801811218262
1744304520.423,-0.5838695764541626,7.279226303100586,3.919583559036255
1744304520.423,-0.952377438545227,7.513731479644775,3.9530842304229736
1744304520.423,-0.9380199909210205,7.303155422210693,3.87172532081604
1744304520.423,-1.201239824295044,7.231368064880371,3.900440216064453
1744304520.423,-1.3543859720230103,7.1356520652771,3.7903664112091064
1744304520.423,-1.2108114957809448,7.111722946166992,3.780794858932495
1744304520.497,-0.3924369215965271,7.1212944984436035,3.5367181301116943
1744304520.497,-0.8470894694328308,6.628355503082275,3.7425081729888916
1744304520.497,0.03828652948141098,6.317277431488037,3.7568657398223877
1744304520.497,0.6221560835838318,5.704692840576172,3.6563634872436523
1744304520.497,0.8710185289382935,5.565904140472412,3.6994359493255615
1744304520.497,1.847325086593628,5.747765064239502,3.077279806137085
1744304520.497,0.22014755010604858,5.92962646484375,3.6276485919952393
1744304520.497,-1.0385221242904663,5.5467610359191895,3.7281508445739746
1744304520.571,-2.1201164722442627,6.125844955444336,3.675506830215454
1744304520.571,-2.0291860103607178,7.106936931610107,3.6563634872436523
1744304520.571,-1.8186101913452148,7.106936931610107,3.6802926063537598
1744304520.571,-1.1055235862731934,7.2552971839904785,3.287855625152588
1744304520.571,-1.0768086910247803,7.456301689147949,3.6850783824920654
1744304520.571,-1.0959519147872925,7.638162612915039,3.6850783824920654
1744304520.571,-1.0528795719146729,7.848738670349121,3.68986439704895
1744304520.571,-3.6420061588287354,7.566375255584717,4.938962459564209
1744304520.646,-1.201239824295044,8.303391456604004,3.929155111312866
1744304520.646,-1.6463208198547363,8.901618003845215,3.9674415588378906
1744304520.646,-1.7898952960968018,9.179195404052734,4.0152997970581055
1744304520.646,-1.4596738815307617,9.121766090393066,3.991370677947998
1744304520.646,-1.0863802433013916,9.255768775939941,3.9100117683410645
1744304520.646,-0.8183745741844177,9.514202117919922,3.857367753982544
1744304520.646,-0.7848738431930542,9.46155834197998,3.8765110969543457
1744304520.646,-0.5838695764541626,9.31319808959961,3.87172532081604
1744304520.72,-0.6508709788322449,9.47113037109375,3.91479754447937
1744304520.72,-1.1150951385498047,9.432844161987305,3.6085054874420166
1744304520.72,-2.0052568912506104,9.265339851379395,3.3117847442626953
1744304520.72,-4.259376525878906,8.815473556518555,5.029892921447754
1744304520.72,-1.3926725387573242,9.404129028320312,3.259140729904175
1744304520.72,-1.3735291957855225,9.361056327819824,3.0868513584136963
1744304520.72,-1.7851094007492065,9.03562068939209,3.3548572063446045
1744304520.72,-1.1820966005325317,9.116979598999023,3.2639267444610596
1744304520.794,-5.92962646484375,8.351249694824219,4.221089839935303
1744304520.794,-1.49317467212677,8.801115989685059,2.7997024059295654
1744304520.794,-1.4453164339065552,8.882474899291992,2.9815635681152344
1744304520.794,-1.612820029258728,8.466109275817871,2.9767775535583496
1744304520.794,-1.9526129961013794,8.456537246704102,2.7853450775146484
1744304520.794,-7.126080513000488,8.676684379577637,4.910247325897217
1744304520.794,-2.3163349628448486,8.547467231750488,2.9528486728668213
1744304520.794,-2.459909439086914,8.566611289978027,3.015064239501953
1744304520.868,-2.340264081954956,8.466109275817871,3.4410018920898438
1744304520.868,-2.2445478439331055,8.791543960571289,3.330928087234497
1744304520.868,-4.38380765914917,8.528324127197266,4.508238792419434
1744304520.868,-1.5888910293579102,9.499845504760742,3.5606472492218018
1744304520.868,-1.4213874340057373,9.74870777130127,3.062922477722168
1744304520.868,-1.3926725387573242,9.973641395568848,2.7422726154327393
1744304520.868,-1.2825987339019775,10.031070709228516,2.522125244140625
1744304520.868,-1.2778129577636719,10.232074737548828,2.5604116916656494
1744304520.943,0.39722275733947754,10.461793899536133,2.014828681945801
1744304520.943,-1.9143264293670654,10.63408374786377,3.7760090827941895
1744304520.943,-2.010042905807495,11.079164505004883,5.628119945526123
1744304520.943,-1.7803236246109009,11.24188232421875,5.489331245422363
1744304520.943,-0.4020085632801056,10.916446685791016,4.4268798828125
1744304520.943,0.6412993669509888,10.662798881530762,3.857367753982544
1744304520.943,1.1677391529083252,10.835087776184082,3.9100117683410645
1744304520.943,0.12443122267723083,11.820965766906738,4.4938812255859375
1744304521.017,-1.426173210144043,12.079400062561035,5.068179130554199
1744304521.017,-1.8138242959976196,12.017184257507324,5.302684307098389
1744304521.017,-1.177310824394226,10.954732894897461,4.881532669067383
1744304521.017,0,9.504631042480469,4.431665897369385
1744304521.017,0.521653950214386,8.748472213745117,4.302448749542236
1744304521.017,0.7513731122016907,8.848974227905273,5.0346784591674805
1744304521.017,1.306527853012085,8.815473556518555,5.3792572021484375
1744304521.017,1.239526391029358,8.729329109191895,5.666406154632568
1744304521.091,0.5790837407112122,8.356035232543945,5.537189483642578
1744304521.091,-0.014357448555529118,7.891810894012451,5.508474349975586
1744304521.091,-0.5790837407112122,7.590304374694824,5.570690155029297
1744304521.091,-0.6269419193267822,7.245725631713867,5.293112754821777
1744304521.091,-0.7130866050720215,6.652284622192383,5.26918363571167
1744304521.091,-1.809038519859314,6.546996593475342,4.618312835693359
1744304521.091,-2.5316967964172363,7.284012317657471,4.388593673706055
1744304521.091,-2.641770601272583,7.078222274780273,4.460380554199219
1744304521.165,-1.6176059246063232,7.025578022003174,4.60874080657959
1744304521.165,-0.44986671209335327,8.241175651550293,4.632669925689697
1744304521.165,0.5838695764541626,8.915975570678711,4.723600387573242
1744304521.165,0.9284483194351196,9.973641395568848,4.6613850593566895
1744304521.165,1.0289504528045654,10.026285171508789,4.709243297576904
1744304521.165,1.2108114957809448,9.7391357421875,4.637455940246582
1744304521.165,0.5503688454627991,9.236625671386719,4.398165225982666
1744304521.165,0.46900999546051025,8.805901527404785,4.312020301818848
1744304521.239,0.11485958844423294,8.408679008483887,4.192375183105469
1744304521.239,0.07178724557161331,7.963598251342773,3.9578700065612793
1744304521.239,-0.06700142472982407,7.906168460845947,4.34073543548584
1744304521.239,0.03350071236491203,7.580732822418213,3.991370677947998
1744304521.239,0,7.877453327178955,3.9961564540863037
1744304521.239,-0.15314611792564392,7.930097579956055,4.053586483001709
1744304521.239,-0.4211518168449402,7.70037841796875,3.9578700065612793
1744304521.239,-0.382865309715271,7.88223934173584,3.900440216064453
1744304521.314,-0.24886244535446167,7.920525550842285,3.8765110969543457
1744304521.314,-0.009571632370352745,8.595325469970703,3.890868663787842
1744304521.314,0.15793193876743317,9.160052299499512,3.8669395446777344
1744304521.314,0.22971917688846588,9.370628356933594,3.723365068435669
1744304521.314,0.3302213251590729,9.265339851379395,3.6420061588287354
1744304521.314,0.5455830693244934,9.298840522766113,3.5941479206085205
1744304521.314,0.3015064299106598,9.413700103759766,3.4266443252563477
1744304521.314,0.3541503846645355,9.136122703552246,3.49843168258667
1744304521.388,0.19621846079826355,9.27969741821289,3.4457876682281494
1744304521.388,0.12443122267723083,9.212696075439453,3.4170727729797363
1744304521.388,0.11485958844423294,9.212696075439453,3.2208542823791504
1744304521.388,-0.03828652948141098,8.93990421295166,3.1490671634674072
1744304521.388,-0.19621846079826355,8.691041946411133,3.048564910888672
1744304521.388,-0.03828652948141098,8.619255065917969,3.0389933586120605
1744304521.388,-0.18664683401584625,8.48046588897705,2.9528486728668213
1744304521.388,0.01914326474070549,8.30817699432373,2.900204658508301
1744304521.462,0.12921704351902008,8.408679008483887,2.909776210784912
1744304521.462,0.13400284945964813,8.461322784423828,3.1012089252471924
1744304521.462,0.2919347882270813,8.552253723144531,3.134709596633911
1744304521.462,0.4307234585285187,8.748472213745117,3.1490671634674072
1744304521.462,0.7178724408149719,8.705399513244629,3.2926416397094727
1744304521.462,0.18664683401584625,8.676684379577637,3.273498296737671
1744304521.462,-0.09571632742881775,8.738900184631348,3.2830698490142822
1744304521.462,0.16750356554985046,8.94947624206543,3.5223608016967773
1744304521.536,0.27757734060287476,9.112194061279297,3.6707210540771484
1744304521.536,0.8279461860656738,9.169623374938965,3.5654330253601074
1744304521.536,1.5697476863861084,9.533346176147461,3.4888598918914795
1744304521.536,1.5649619102478027,9.796566009521484,3.259140729904175
1744304521.536,0.8518753051757812,9.657776832580566,2.9624202251434326
1744304521.536,0.07657305896282196,9.361056327819824,2.703986167907715
1744304521.536,-0.5742979645729065,8.920761108398438,2.3641932010650635
1744304521.536,-0.679585874080658,8.77718734741211,2.464695453643799
1744304521.611,0.10528795421123505,9.174409866333008,6.613997936248779
1744304521.611,-1.4788172245025635,9.743921279907227,4.915033340454102
1744304521.611,-2.263690948486328,9.935354232788086,7.030364036560059
1744304521.611,-4.436451435089111,10.495294570922852,7.164366722106934
1744304521.611,-4.776244640350342,10.567082405090332,5.9966278076171875
1744304521.611,-2.881061315536499,10.667584419250488,6.178488731384277
1744304521.611,-2.3306925296783447,12.007613182067871,4.94853401184082
1744304521.611,-0.12921704351902008,12.845130920410156,6.216775417327881
1744304521.685,-0.5120823383331299,10.763300895690918,8.145459175109863
1744304521.685,1.560176134109497,12.873845100402832,8.49960994720459
1744304521.685,1.1198810338974,12.036327362060547,5.647263050079346
1744304521.685,0.37807947397232056,11.06002140045166,4.699671268463135
1744304521.685,-0.9906639456748962,9.815709114074707,4.551311016082764
1744304521.685,-1.7372512817382812,8.676684379577637,4.56566858291626
1744304521.685,-2.278048515319824,8.021027565002441,4.618312835693359
1744304521.685,-2.3450498580932617,7.547232151031494,4.350306987762451
1744304521.759,-3.2352118492126465,7.499373912811279,4.178017616271973
1744304521.759,-3.5175747871398926,7.614233493804932,4.178017616271973
1744304521.759,-2.7805593013763428,8.001884460449219,4.307234764099121
1744304521.759,-1.6558923721313477,8.2124605178833,4.46995210647583
1744304521.759,-0.588655412197113,8.633612632751465,4.685314178466797
1744304521.759,-0.4020085632801056,8.93990421295166,4.575240135192871
1744304521.759,-0.6652284264564514,8.662327766418457,4.532167911529541
1744304521.759,-0.37807947397232056,8.49960994720459,4.292877197265625
1744304521.833,-0.3206496834754944,8.762829780578613,4.364664554595947
1744304521.833,0.03350071236491203,8.992548942565918,4.249804973602295
1744304521.833,-0.5838695764541626,8.705399513244629,4.230661392211914
1744304521.833,-0.9428057670593262,8.51396656036377,3.977013349533081
1744304521.833,-1.2490980625152588,8.22203254699707,3.9530842304229736
1744304521.833,-1.7946810722351074,7.666877746582031,3.795152187347412
1744304521.833,-2.0483293533325195,7.513731479644775,3.618077039718628
1744304521.833,-1.799466848373413,7.724307537078857,3.527146577835083
1744304521.907,-2.0004711151123047,7.982741355895996,3.464931011199951
1744304521.907,-1.8233959674835205,7.705163955688477,3.785580635070801
1744304521.907,-1.0241646766662598,7.915740013122559,3.9387266635894775
1744304521.907,-1.148595929145813,8.379963874816895,3.9243693351745605
1744304521.907,-1.229954719543457,8.801115989685059,3.91479754447937
1744304521.907,-1.5410327911376953,9.078693389892578,3.933940887451172
1744304521.907,-1.6367491483688354,9.346698760986328,4.06315803527832
1744304521.907,-1.5027462244033813,9.442415237426758,4.005728244781494
1744304521.982,-1.5362470149993896,9.509416580200195,3.9387266635894775
1744304521.982,-1.6989647150039673,9.624276161193848,3.9387266635894775
1744304521.982,-1.5553902387619019,9.538131713867188,3.8382246494293213
1744304521.982,-1.4692455530166626,9.485487937927246,3.766437292098999
1744304521.982,-1.3974583148956299,9.361056327819824,3.6563634872436523
1744304521.982,-1.3448143005371094,9.164837837219238,3.4936459064483643
1744304521.982,-1.081594467163086,8.906403541564941,3.603719472885132
1744304521.982,-0.8758043646812439,8.92554759979248,3.603719472885132
1744304522.056,-0.8758043646812439,8.92554759979248,3.6563634872436523
1744304522.056,-1.1581674814224243,8.987762451171875,3.6802926063537598
1744304522.056,-1.8664683103561401,9.088264465332031,3.809509754180908
1744304522.056,-1.8616825342178345,8.997334480285645,3.991370677947998
1744304522.056,-1.5362470149993896,9.155266761779785,4.355092525482178
1744304522.056,-1.454888105392456,9.241411209106445,4.637455940246582
1744304522.056,-1.0289504528045654,9.581204414367676,4.158874034881592
1744304522.056,-1.4453164339065552,9.691277503967285,3.814295530319214
1744304522.13,-1.0098072290420532,9.480701446533203,3.5223608016967773
1744304522.13,-0.1722893863916397,9.28926944732666,3.5319323539733887
1744304522.13,-0.23450499773025513,9.212696075439453,4.3598785400390625
1744304522.13,-1.1294525861740112,9.614705085754395,3.8765110969543457
1744304522.13,-1.1342384815216064,9.346698760986328,4.005728244781494
1744304522.13,-0.8183745741844177,8.858545303344727,4.2258758544921875
1744304522.13,-1.0528795719146729,8.791543960571289,3.68986439704895
1744304522.13,-1.139024257659912,8.667113304138184,3.7185792922973633
1744304522.204,-0.6317277550697327,8.375178337097168,3.7472941875457764
1744304522.204,-0.6843717098236084,8.49003791809082,3.7472941875457764
1744304522.204,-1.177310824394226,8.647970199584961,3.8956544399261475
1744304522.204,-1.4788172245025635,8.86333179473877,4.005728244781494
1744304522.204,-1.689393162727356,9.078693389892578,3.9722273349761963
1744304522.204,-1.7085363864898682,9.169623374938965,4.000942230224609
1744304522.204,-1.7946810722351074,9.069121360778809,3.9578700065612793
1744304522.204,-1.584105134010315,8.930333137512207,3.9674415588378906
1744304522.278,-1.464459776878357,8.810688018798828,3.6850783824920654
1744304522.278,-0.6939433217048645,8.978191375732422,3.929155111312866
1744304522.278,-0.047858163714408875,8.94947624206543,4.0583720207214355
1744304522.278,0.3541503846645355,8.915975570678711,3.900440216064453
1744304522.278,0.5360113978385925,8.796330451965332,3.87172532081604
1744304522.278,0.35893622040748596,8.719757080078125,3.7903664112091064
1744304522.278,0.18664683401584625,8.853759765625,3.694650173187256
1744304522.278,0.03828652948141098,9.270126342773438,3.6802926063537598
1744304522.353,0.22493335604667664,9.404129028320312,3.6132912635803223
1744304522.353,0.16750356554985046,9.504631042480469,3.570218801498413
1744304522.353,0.3541503846645355,9.801351547241211,3.527146577835083
1744304522.353,-1.3639576435089111,9.964069366455078,3.6228628158569336
1744304522.353,-1.3017419576644897,10.227289199829102,3.823867082595825
1744304522.353,-0.3732936680316925,10.093286514282227,3.814295530319214
1744304522.353,0.339792937040329,9.815709114074707,3.9243693351745605
1744304522.353,0.5360113978385925,9.28926944732666,3.91479754447937
1744304522.427,0.44029510021209717,8.762829780578613,3.9387266635894775
1744304522.427,0.34936457872390747,8.379963874816895,3.9100117683410645
1744304522.427,-0.15314611792564392,8.178959846496582,3.948298454284668
1744304522.427,-0.5982270240783691,8.202888488769531,3.91479754447937
1744304522.427,-1.110309362411499,8.274676322937012,3.9243693351745605
1744304522.427,-0.8279461860656738,8.509181022644043,3.962655782699585
1744304522.427,-0.8901618123054504,8.738900184631348,4.134945392608643
1744304522.427,-0.8901618123054504,8.987762451171875,4.2258758544921875
1744304522.501,-1.1916682720184326,9.169623374938965,4.216303825378418
1744304522.501,-1.1629533767700195,9.265339851379395,4.235447406768799
1744304522.501,-1.0672370195388794,9.317984580993652,4.192375183105469
1744304522.501,-0.904519259929657,9.31319808959961,4.24501895904541
1744304522.501,-0.4450809061527252,9.145694732666016,4.221089839935303
1744304522.501,-0.009571632370352745,9.03562068939209,4.187589168548584
1744304522.501,0.11485958844423294,8.892046928405762,4.278519630432129
1744304522.501,0.18664683401584625,8.906403541564941,4.187589168548584
1744304522.575,-0.15793193876743317,8.82983112335205,4.163660049438477
1744304522.575,-0.19621846079826355,8.796330451965332,4.1493024826049805
1744304522.575,-0.47858160734176636,8.86333179473877,4.259376525878906
1744304522.575,-0.4259376525878906,9.093050956726074,4.192375183105469
1744304522.575,-0.5360113978385925,9.160052299499512,4.163660049438477
1744304522.575,-0.43550926446914673,9.126551628112793,4.1493024826049805
1744304522.575,-0.17707519233226776,9.164837837219238,4.144516944885254
1744304522.575,0.11964540183544159,9.21748161315918,4.158874034881592
1744304522.65,0.15314611792564392,9.078693389892578,4.154088497161865
1744304522.65,0.1914326548576355,9.040407180786133,4.178017616271973
1744304522.65,-0.11485958844423294,8.935118675231934,4.197160720825195
1744304522.65,-0.05742979422211647,8.834616661071777,4.130159378051758
1744304522.65,0.06221561133861542,8.839402198791504,4.178017616271973
1744304522.65,0.11964540183544159,8.896832466125488,4.259376525878906
1744304522.65,0.0909305065870285,9.006906509399414,4.2258758544921875
1744304522.65,-0.18664683401584625,9.083478927612305,4.206732273101807
1744304522.724,-0.3350071310997009,9.13133716583252,4.206732273101807
1744304522.724,-0.23450499773025513,9.093050956726074,4.111016273498535
1744304522.724,-0.30629223585128784,9.088264465332031,4.077515602111816
1744304522.724,-0.40679436922073364,9.069121360778809,4.029657363891602
1744304522.724,-0.6412993669509888,9.03562068939209,3.991370677947998
1744304522.724,-0.8566610813140869,9.102622032165527,3.9578700065612793
1744304522.724,-0.8901618123054504,9.126551628112793,3.9243693351745605
1744304522.724,-1.0480937957763672,9.059550285339355,3.933940887451172
1744304522.798,-1.0576653480529785,9.069121360778809,3.8190813064575195
1744304522.798,-0.7896596789360046,8.872902870178223,3.900440216064453
1744304522.798,-0.6939433217048645,8.853759765625,3.9387266635894775
1744304522.798,-0.6365135312080383,8.86333179473877,3.977013349533081
1744304522.798,-0.6317277550697327,8.954261779785156,3.943512439727783
1744304522.798,-0.7800880670547485,9.040407180786133,3.929155111312866
1744304522.798,-0.9332341551780701,9.126551628112793,3.9100117683410645
1744304522.798,-0.9140908718109131,9.059550285339355,3.9674415588378906
1744304522.872,-0.7992312908172607,9.054763793945312,4.039228916168213
1744304522.872,-1.0050214529037476,8.9590482711792,4.0583720207214355
1744304522.872,-1.0050214529037476,8.94947624206543,4.048800468444824
1744304522.872,-0.8327320218086243,8.920761108398438,4.240232944488525
1744304522.872,-0.8805902004241943,8.753257751464844,4.345520973205566
1744304522.872,-0.9475916028022766,8.839402198791504,4.28809118270874
1744304522.872,-1.1150951385498047,8.978191375732422,4.000942230224609
1744304522.872,-1.110309362411499,8.9590482711792,3.943512439727783
1744304522.946,-1.1342384815216064,8.978191375732422,4.034442901611328
1744304522.946,-0.8614469170570374,8.968619346618652,3.8765110969543457
1744304522.946,-0.5312256217002869,9.083478927612305,4.1493024826049805
1744304522.946,-0.5455830693244934,9.073907852172852,4.034442901611328
1744304522.946,-0.5503688454627991,9.069121360778809,3.87172532081604
1744304522.946,-0.3445787727832794,9.030835151672363,3.9578700065612793
1744304522.946,-0.6604426503181458,8.968619346618652,3.9674415588378906
1744304522.946,-0.5934411883354187,9.006906509399414,4.000942230224609
1744304523.021,-0.7178724408149719,9.030835151672363,4.029657363891602
1744304523.021,-0.7753022313117981,8.930333137512207,4.005728244781494
1744304523.021,-0.7322298884391785,8.920761108398438,4.1205878257751465
1744304523.021,-0.5934411883354187,8.892046928405762,4.10623025894165
1744304523.021,-0.3015064299106598,8.930333137512207,4.072729587554932
1744304523.021,-0.24407662451267242,8.987762451171875,4.111016273498535
1744304523.021,-0.5982270240783691,9.088264465332031,3.9530842304229736
1744304523.021,-0.5360113978385925,9.13133716583252,4.1493024826049805
1744304523.095,-0.7561589479446411,9.073907852172852,4.2258758544921875
1744304523.095,-0.36850783228874207,9.030835151672363,4.278519630432129
1744304523.095,-0.6317277550697327,8.892046928405762,4.28809118270874
1744304523.095,-0.27757734060287476,8.791543960571289,4.240232944488525
1744304523.095,-0.8662327527999878,8.700613975524902,4.158874034881592
1744304523.095,-0.8805902004241943,8.705399513244629,3.809509754180908
1744304523.095,-0.8375178575515747,8.753257751464844,3.9100117683410645
1744304523.095,-0.6317277550697327,8.705399513244629,4.111016273498535
1744304523.169,-0.6460852026939392,8.748472213745117,4.206732273101807
1744304523.169,0.3302213251590729,8.686256408691406,4.498667240142822
1744304523.169,-0.4833674430847168,8.858545303344727,4.536953926086426
1744304523.169,-0.08135887235403061,8.930333137512207,4.680528163909912
1744304523.169,-0.23450499773025513,9.078693389892578,4.536953926086426
1744304523.169,-0.7226582169532776,9.069121360778809,4.000942230224609
1744304523.169,-0.3110780417919159,9.064335823059082,4.2258758544921875
1744304523.169,-0.5742979645729065,8.978191375732422,4.28809118270874
1744304523.243,-0.4833674430847168,8.992548942565918,4.283305644989014
1744304523.243,-0.9619490504264832,8.834616661071777,3.7329366207122803
1744304523.243,-0.7561589479446411,9.078693389892578,4.087087154388428
1744304523.243,-0.679585874080658,8.9590482711792,4.187589168548584
1744304523.243,-0.13878867030143738,8.676684379577637,5.532403469085693
1744304523.243,-0.7753022313117981,8.954261779785156,4.910247325897217
1744304523.243,-1.110309362411499,9.37541389465332,4.067943572998047
1744304523.243,-1.0576653480529785,9.255768775939941,4.000942230224609
1744304523.318,-0.7944455146789551,9.160052299499512,4.20194673538208
1744304523.318,-0.4546525478363037,9.069121360778809,4.211518287658691
1744304523.318,-0.339792937040329,9.026049613952637,4.0583720207214355
1744304523.318,-0.34936457872390747,8.915975570678711,4.139730930328369
1744304523.318,-0.31586387753486633,8.705399513244629,4.0583720207214355
1744304523.318,-0.22971917688846588,8.652755737304688,4.1205878257751465
1744304523.318,-0.2632198929786682,8.662327766418457,4.130159378051758
1744304523.318,-0.29672059416770935,8.691041946411133,4.259376525878906
1744304523.392,-0.5790837407112122,8.68147087097168,4.388593673706055
1744304523.392,-1.0289504528045654,8.815473556518555,4.264162063598633
1744304523.392,-1.4118157625198364,9.083478927612305,4.278519630432129
1744304523.392,-1.4740313291549683,9.322770118713379,4.072729587554932
1744304523.392,-1.306527853012085,9.466344833374023,4.034442901611328
1744304523.392,-1.1725249290466309,9.294054985046387,4.010513782501221
1744304523.392,-0.8518753051757812,9.270126342773438,4.0583720207214355
1744304523.392,-0.6604426503181458,9.121766090393066,4.005728244781494
1744304523.466,-0.49772489070892334,9.002120018005371,3.9722273349761963
1744304523.466,-0.339792937040329,8.786758422851562,4.005728244781494
1744304523.466,-0.15314611792564392,8.714971542358398,4.039228916168213
1744304523.466,-0.19621846079826355,8.614469528198242,4.024871349334717
1744304523.466,-0.5120823383331299,8.691041946411133,4.111016273498535
1744304523.466,-0.25843408703804016,8.810688018798828,4.06315803527832
1744304523.466,-0.4929390549659729,8.872902870178223,4.005728244781494
1744304523.466,-1.019378900527954,9.01169204711914,4.0583720207214355
1744304523.54,-1.1868823766708374,9.040407180786133,4.010513782501221
1744304523.54,-1.0241646766662598,9.026049613952637,4.249804973602295
1744304523.54,-0.9332341551780701,9.078693389892578,4.221089839935303
1744304523.54,-0.6604426503181458,8.920761108398438,4.182803153991699
1744304523.54,-0.5025107264518738,8.805901527404785,4.881532669067383
1744304523.54,-1.9861136674880981,9.078693389892578,4.804959297180176
1744304523.54,-1.7563945055007935,9.078693389892578,4.374236106872559
1744304523.54,-0.5647262930870056,8.844188690185547,4.178017616271973
1744304523.614,0.06221561133861542,8.801115989685059,4.168446063995361
1744304523.614,-0.6700142621994019,8.86333179473877,4.029657363891602
1744304523.614,0.10528795421123505,9.059550285339355,3.9961564540863037
1744304523.614,0.047858163714408875,9.073907852172852,3.991370677947998
1744304523.614,-0.4833674430847168,9.112194061279297,3.943512439727783
1744304523.614,0.23929080367088318,9.04519271850586,4.000942230224609
1744304523.614,-1.268241286277771,8.887260437011719,3.598933696746826
1744304523.614,-0.7609447836875916,9.073907852172852,3.484074115753174
1744304523.689,-2.4120514392852783,9.284482955932617,3.5462896823883057
1744304523.689,-1.2586696147918701,9.265339851379395,3.8334388732910156
1744304523.689,-1.268241286277771,9.231839179992676,4.082301139831543
1744304523.689,2.4264087677001953,8.963833808898926,5.628119945526123
1744304523.689,-2.8858470916748047,8.423036575317383,3.2495691776275635
1744304523.689,-1.8281817436218262,9.504631042480469,2.9049904346466064
1744304523.689,-2.641770601272583,9.475915908813477,3.393143653869629
1744304523.689,-0.952377438545227,9.308412551879883,4.436451435089111
1744304523.763,-1.416601538658142,9.538131713867188,4.20194673538208
1744304523.763,-0.7513731122016907,9.542917251586914,3.694650173187256
1744304523.763,-1.1533817052841187,9.21748161315918,3.943512439727783
1744304523.763,-1.2060257196426392,8.801115989685059,3.843010425567627
1744304523.763,-0.6317277550697327,8.743685722351074,4.034442901611328
1744304523.763,-0.5647262930870056,8.743685722351074,3.91479754447937
1744304523.763,-0.01914326474070549,8.75804328918457,3.977013349533081
1744304523.763,-0.23929080367088318,8.810688018798828,3.9674415588378906
1744304523.837,0.023929081857204437,8.834616661071777,3.9578700065612793
1744304523.837,-0.39722275733947754,8.853759765625,3.943512439727783
1744304523.837,0.5647262930870056,8.901618003845215,3.9243693351745605
1744304523.837,-1.3160994052886963,8.973404884338379,4.0152997970581055
1744304523.837,-1.5553902387619019,9.284482955932617,4.154088497161865
1744304523.837,-1.4740313291549683,9.164837837219238,4.1493024826049805
1744304523.837,-0.8614469170570374,9.049978256225586,4.096658706665039
1744304523.837,-0.47858160734176636,8.9590482711792,4.039228916168213
1744304523.911,-0.44029510021209717,9.064335823059082,4.06315803527832
1744304523.911,-0.35893622040748596,9.040407180786133,4.144516944885254
1744304523.911,-0.3015064299106598,8.892046928405762,4.082301139831543
1744304523.911,-0.37807947397232056,8.805901527404785,4.139730930328369
1744304523.911,-0.5360113978385925,8.810688018798828,4.125373363494873
1744304523.911,-0.8327320218086243,8.868117332458496,4.24501895904541
1744304523.911,-0.5025107264518738,9.241411209106445,4.082301139831543
1744304523.911,-1.2251689434051514,9.514202117919922,4.216303825378418
1744304523.986,-1.4692455530166626,9.547703742980957,4.450809001922607
1744304523.986,-0.8614469170570374,9.327555656433105,4.3598785400390625
1744304523.986,-0.5312256217002869,8.872902870178223,4.230661392211914
1744304523.986,-0.3110780417919159,8.714971542358398,4.111016273498535
1744304523.986,-0.40679436922073364,8.590539932250977,4.048800468444824
1744304523.986,-0.7705163955688477,8.667113304138184,4.077515602111816
1744304523.986,-0.569512128829956,8.619255065917969,3.929155111312866
1744304523.986,-0.8805902004241943,8.868117332458496,3.9865849018096924
1744304524.06,-1.110309362411499,9.250982284545898,4.0152997970581055
1744304524.06,-0.9858781099319458,9.361056327819824,4.024871349334717
1744304524.06,-1.229954719543457,9.437629699707031,4.010513782501221
1744304524.06,0.8805902004241943,9.696063995361328,3.3117847442626953
1744304524.06,1.1150951385498047,9.624276161193848,3.795152187347412
1744304524.06,0.25843408703804016,9.380199432373047,4.024871349334717
1744304524.06,-0.4020085632801056,8.944690704345703,3.929155111312866
1744304524.06,-0.8231604099273682,8.743685722351074,3.823867082595825
1744304524.134,-1.4070299863815308,8.729329109191895,3.8956544399261475
1744304524.134,-0.540797233581543,8.633612632751465,3.7616515159606934
1744304524.134,0.19621846079826355,8.724542617797852,3.6372203826904297
1744304524.134,-0.14357449114322662,8.748472213745117,3.814295530319214
1744304524.134,-0.5838695764541626,8.786758422851562,3.6802926063537598
1744304524.134,-0.5982270240783691,8.705399513244629,3.6515777111053467
1744304524.134,-1.1438100337982178,8.844188690185547,3.809509754180908
1744304524.134,-1.4213874340057373,8.86333179473877,3.8334388732910156
1744304524.208,-1.229954719543457,9.006906509399414,3.9530842304229736
1744304524.208,-0.7513731122016907,9.160052299499512,4.0440144538879395
1744304524.208,-0.34936457872390747,9.10740852355957,4.115801811218262
1744304524.208,-0.9332341551780701,9.236625671386719,4.1205878257751465
1744304524.208,-0.9332341551780701,9.317984580993652,3.991370677947998
1744304524.208,-0.9093050956726074,9.356270790100098,3.87172532081604
1744304524.208,-0.7705163955688477,9.370628356933594,4.053586483001709
1744304524.208,-0.9571632146835327,9.303627014160156,4.06315803527832
1744304524.282,-0.8375178575515747,8.997334480285645,4.0583720207214355
1744304524.282,-0.9763064980506897,8.93990421295166,3.9243693351745605
1744304524.282,-1.1533817052841187,9.016477584838867,4.130159378051758
1744304524.282,-0.6891575455665588,9.13133716583252,4.000942230224609
1744304524.282,-1.3543859720230103,9.27969741821289,3.8334388732910156
1744304524.282,-1.3926725387573242,9.490273475646973,3.8956544399261475
1744304524.282,-0.6604426503181458,9.423272132873535,3.9100117683410645
1744304524.282,-0.3206496834754944,8.906403541564941,3.9722273349761963
1744304524.357,-0.6939433217048645,8.561824798583984,3.87172532081604
1744304524.357,-0.8088029623031616,8.456537246704102,3.823867082595825
1744304524.357,-0.7944455146789551,8.561824798583984,3.8190813064575195
1744304524.357,-1.1629533767700195,8.772400856018066,3.8477962017059326
1744304524.357,-1.0385221242904663,8.920761108398438,3.857367753982544
1744304524.357,-0.7800880670547485,8.944690704345703,4.268948078155518
1744304524.357,-0.540797233581543,9.37541389465332,3.9674415588378906
1744304524.357,0.4642241597175598,9.619490623474121,4.029657363891602
1744304524.431,0.028714897111058235,9.126551628112793,3.943512439727783
1744304524.431,-0.24886244535446167,9.327555656433105,3.7616515159606934
1744304524.431,-2.038757801055908,9.408914566040039,3.7185792922973633
1744304524.431,-1.3304568529129028,9.356270790100098,3.933940887451172
1744304524.431,-1.2730270624160767,9.466344833374023,3.479288339614868
1744304524.431,-1.2108114957809448,9.179195404052734,3.675506830215454
1744304524.431,0.48815324902534485,8.547467231750488,3.464931011199951
1744304524.431,0.12443122267723083,8.446965217590332,3.962655782699585
1744304524.505,-0.13400284945964813,8.312962532043457,3.919583559036255
1744304524.505,-0.23929080367088318,8.566611289978027,4.278519630432129
1744304524.505,-0.6412993669509888,8.652755737304688,4.115801811218262
1744304524.505,-2.0339717864990234,8.552253723144531,4.541739463806152
1744304524.505,-1.3926725387573242,8.805901527404785,4.580026149749756
1744304524.505,-1.2730270624160767,9.040407180786133,4.4795241355896
1744304524.505,-1.809038519859314,9.303627014160156,4.4651665687561035
1744304524.505,-1.7468229532241821,9.428057670593262,4.28809118270874
1744304524.579,-1.3639576435089111,9.447200775146484,4.163660049438477
1744304524.579,-1.2634555101394653,9.533346176147461,4.077515602111816
1744304524.579,-0.8183745741844177,9.504631042480469,4.02008581161499
1744304524.579,-0.023929081857204437,9.188767433166504,3.9578700065612793
1744304524.579,0.363722026348114,9.002120018005371,4.082301139831543
1744304524.579,0.27757734060287476,8.580968856811523,3.8669395446777344
1744304524.579,0.08614469319581985,8.389535903930664,3.8765110969543457
1744304524.579,-0.7800880670547485,8.384750366210938,4.034442901611328
1744304524.653,-0.8566610813140869,8.523538589477539,4.111016273498535
1744304524.653,-0.5168681740760803,8.714971542358398,4.173231601715088
1744304524.653,-0.3302213251590729,8.872902870178223,4.163660049438477
1744304524.653,0.06221561133861542,9.093050956726074,4.316806316375732
1744304524.653,-0.07657305896282196,9.241411209106445,4.24501895904541
1744304524.653,-1.081594467163086,9.270126342773438,4.388593673706055
1744304524.653,-1.110309362411499,9.270126342773438,4.20194673538208
1744304524.653,-1.6654640436172485,9.346698760986328,4.072729587554932
1744304524.728,-1.1916682720184326,9.404129028320312,4.240232944488525
1744304524.728,-0.9140908718109131,9.303627014160156,4.134945392608643
1744304524.728,-0.7609447836875916,9.298840522766113,4.197160720825195
1744304524.728,-0.3302213251590729,9.212696075439453,4.096658706665039
1744304524.728,-0.6700142621994019,9.13133716583252,3.9530842304229736
1744304524.728,-0.8327320218086243,8.935118675231934,4.087087154388428
1744304524.728,-1.2155972719192505,9.006906509399414,4.268948078155518
1744304524.728,-1.081594467163086,8.987762451171875,4.10623025894165
1744304524.802,-0.9858781099319458,8.915975570678711,3.9674415588378906
1744304524.802,-1.0050214529037476,8.748472213745117,3.8669395446777344
1744304524.802,-0.9428057670593262,8.676684379577637,3.857367753982544
1744304524.802,-0.746587336063385,8.848974227905273,3.709007501602173
1744304524.802,-0.5120823383331299,9.10740852355957,3.8669395446777344
1744304524.802,-0.904519259929657,9.389771461486816,3.814295530319214
1744304524.802,-1.1342384815216064,9.56684684753418,3.9817991256713867
1744304524.802,-1.4405306577682495,9.413700103759766,3.9530842304229736
1744304524.876,-0.9619490504264832,9.093050956726074,4.077515602111816
1744304524.876,-0.6748000979423523,8.791543960571289,3.8812968730926514
1744304524.876,-0.9667348861694336,8.791543960571289,3.929155111312866
1744304524.876,-0.5025107264518738,8.858545303344727,4.000942230224609
1744304524.876,-0.9619490504264832,8.920761108398438,4.125373363494873
1744304524.876,-2.4838385581970215,9.054763793945312,4.096658706665039
1744304524.876,-2.057900905609131,9.332341194152832,4.273733615875244
1744304524.876,-2.057900905609131,9.298840522766113,4.134945392608643
1744304524.95,-1.4883887767791748,9.236625671386719,4.139730930328369
1744304524.95,-1.2490980625152588,8.992548942565918,4.197160720825195
1744304524.95,-1.4022440910339355,9.212696075439453,4.029657363891602
1744304524.95,-2.6800570487976074,9.064335823059082,3.795152187347412
1744304524.95,-1.584105134010315,8.810688018798828,4.316806316375732
1744304524.95,-0.8040171265602112,8.729329109191895,4.178017616271973
1744304524.95,0.363722026348114,8.600111961364746,4.446023464202881
1744304524.95,0.9332341551780701,8.379963874816895,4.273733615875244
1744304525.025,1.0768086910247803,8.437394142150879,4.0440144538879395
1744304525.025,0.49772489070892334,8.475680351257324,4.163660049438477
1744304525.025,0.4020085632801056,8.738900184631348,4.1205878257751465
1744304525.025,-0.3302213251590729,8.868117332458496,4.111016273498535
1744304525.025,-0.8758043646812439,9.01169204711914,4.211518287658691
1744304525.025,-1.072022795677185,8.987762451171875,4.187589168548584
1744304525.025,-0.8423036336898804,9.140909194946289,4.20194673538208
1744304525.025,-0.7609447836875916,9.116979598999023,4.206732273101807
1744304525.099,-0.588655412197113,8.987762451171875,4.211518287658691
1744304525.099,-0.48815324902534485,8.920761108398438,4.259376525878906
1744304525.099,-0.6652284264564514,8.901618003845215,4.230661392211914
1744304525.099,-0.6460852026939392,9.026049613952637,4.197160720825195
1744304525.099,-0.8375178575515747,9.03562068939209,4.297662734985352
1744304525.099,-0.9810923337936401,9.069121360778809,4.316806316375732
1744304525.099,-1.0672370195388794,9.04519271850586,4.268948078155518
1744304525.099,-0.8566610813140869,8.987762451171875,4.297662734985352
1744304525.173,-0.6748000979423523,8.892046928405762,4.249804973602295
1744304525.173,-0.569512128829956,8.796330451965332,4.312020301818848
1744304525.173,-0.6939433217048645,8.844188690185547,4.24501895904541
1744304525.173,-0.4020085632801056,8.868117332458496,4.1205878257751465
1744304525.173,-0.29672059416770935,9.040407180786133,4.134945392608643
1744304525.173,-0.10528795421123505,9.03562068939209,4.082301139831543
1744304525.173,-0.46900999546051025,9.140909194946289,3.991370677947998
1744304525.173,-0.6604426503181458,9.102622032165527,3.87172532081604
1744304525.247,-0.8805902004241943,9.207910537719727,3.929155111312866
1744304525.247,-1.0289504528045654,9.231839179992676,3.87172532081604
1744304525.247,-0.9093050956726074,9.22705364227295,3.8621537685394287
1744304525.247,-0.6030128598213196,9.22705364227295,3.7281508445739746
1744304525.247,-0.5551546812057495,9.222268104553223,3.6802926063537598
1744304525.247,-0.4929390549659729,9.222268104553223,3.6802926063537598
1744304525.247,-0.6508709788322449,9.284482955932617,3.6132912635803223
1744304525.247,-0.7035149931907654,9.284482955932617,3.723365068435669
1744304525.321,-0.8470894694328308,9.337127685546875,3.7185792922973633
1744304525.321,-0.7992312908172607,9.241411209106445,3.5941479206085205
1744304525.321,-0.7035149931907654,9.294054985046387,3.49843168258667
1744304525.321,-0.7035149931907654,9.413700103759766,3.603719472885132
1744304525.321,-0.7226582169532776,9.4950590133667,3.5367181301116943
1744304525.321,-0.3206496834754944,9.418486595153809,3.68986439704895
1744304525.321,-0.3732936680316925,9.332341194152832,3.5750045776367188
1744304525.321,-0.8566610813140869,9.341913223266602,3.6132912635803223
1744304525.396,-1.8568966388702393,9.0978364944458,3.694650173187256
1744304525.396,-1.9861136674880981,8.868117332458496,3.4122869968414307
1744304525.396,-1.139024257659912,8.647970199584961,3.5797905921936035
1744304525.396,-0.9380199909210205,8.772400856018066,3.6994359493255615
1744304525.396,-0.5551546812057495,8.76761531829834,3.6515777111053467
1744304525.396,-0.5120823383331299,8.848974227905273,3.5606472492218018
1744304525.396,-0.7370156645774841,8.915975570678711,3.6802926063537598
1744304525.396,-1.0576653480529785,9.064335823059082,3.632434368133545
1744304525.47,-0.9428057670593262,9.10740852355957,3.7329366207122803
1744304525.47,-1.148595929145813,9.231839179992676,3.6850783824920654
1744304525.47,-0.7944455146789551,9.437629699707031,3.6994359493255615
1744304525.47,-0.7418015003204346,9.4950590133667,3.5510756969451904
1744304525.47,-0.8231604099273682,9.451987266540527,3.8477962017059326
1744304525.47,-0.3541503846645355,9.518988609313965,3.7568657398223877
1744304525.47,-0.23929080367088318,9.317984580993652,3.7329366207122803
1744304525.47,-0.014357448555529118,9.155266761779785,3.7137932777404785
1744304525.544,-0.44986671209335327,9.069121360778809,3.7185792922973633
1744304525.544,-0.21536172926425934,8.992548942565918,3.6802926063537598
1744304525.544,-0.16271774470806122,8.920761108398438,3.632434368133545
1744304525.544,-0.22014755010604858,8.839402198791504,3.7281508445739746
1744304525.544,-0.6556568145751953,8.901618003845215,3.694650173187256
1744304525.544,-0.4115802049636841,9.069121360778809,3.6420061588287354
1744304525.544,-0.8183745741844177,9.22705364227295,3.709007501602173
1744304525.544,-0.8805902004241943,9.337127685546875,3.723365068435669
1744304525.618,-0.7370156645774841,9.356270790100098,3.7329366207122803
1744304525.618,-0.4020085632801056,9.38498592376709,3.809509754180908
1744304525.618,-0.569512128829956,9.317984580993652,3.8525819778442383
1744304525.618,-0.5647262930870056,9.207910537719727,3.943512439727783
1744304525.618,-0.5168681740760803,9.054763793945312,3.929155111312866
1744304525.618,-0.40679436922073364,8.982976913452148,3.929155111312866
1744304525.618,-0.5647262930870056,8.868117332458496,3.8765110969543457
1744304525.618,-0.6030128598213196,8.892046928405762,3.9387266635894775
1744304525.693,-0.45943835377693176,8.906403541564941,3.8956544399261475
1744304525.693,-0.5599405169487,9.04519271850586,3.8812968730926514
1744304525.693,-0.46900999546051025,9.265339851379395,3.8812968730926514
1744304525.693,-0.6221560835838318,9.298840522766113,3.9243693351745605
1744304525.693,-0.6843717098236084,9.188767433166504,3.68986439704895
1744304525.693,-0.47858160734176636,9.236625671386719,3.704221725463867
1744304525.693,-0.43550926446914673,9.270126342773438,3.8621537685394287
1744304525.693,-0.6317277550697327,9.002120018005371,3.890868663787842
1744304525.767,-0.588655412197113,8.872902870178223,3.9674415588378906
1744304525.767,-0.5551546812057495,8.647970199584961,4.029657363891602
1744304525.767,-0.5838695764541626,8.49960994720459,3.943512439727783
1744304525.767,-0.6843717098236084,8.647970199584961,4.029657363891602
1744304525.767,-0.7753022313117981,8.844188690185547,4.091872692108154
1744304525.767,-0.8997334241867065,8.896832466125488,4.168446063995361
1744304525.767,-0.746587336063385,9.174409866333008,4.1493024826049805
1744304525.767,-0.6508709788322449,9.212696075439453,4.134945392608643
1744304525.841,-0.6556568145751953,9.308412551879883,4.077515602111816
1744304525.841,-0.5838695764541626,9.198338508605957,4.029657363891602
1744304525.841,-0.6939433217048645,9.145694732666016,4.1205878257751465
1744304525.841,-0.5503688454627991,8.968619346618652,3.9961564540863037
1744304525.841,-0.7370156645774841,8.973404884338379,4.039228916168213
1744304525.841,-0.7992312908172607,8.978191375732422,4.005728244781494
1744304525.841,-0.8183745741844177,9.112194061279297,4.029657363891602
1744304525.841,-0.7896596789360046,9.136122703552246,3.991370677947998
1744304525.915,-0.6556568145751953,9.294054985046387,3.9578700065612793
1744304525.915,-0.44986671209335327,9.303627014160156,3.814295530319214
1744304525.915,-0.43550926446914673,9.298840522766113,3.780794858932495
1744304525.915,-0.4115802049636841,9.102622032165527,3.6850783824920654
1744304525.915,-0.3302213251590729,8.992548942565918,3.785580635070801
1744304525.915,-0.4259376525878906,8.954261779785156,3.7999379634857178
1744304525.915,-0.7848738431930542,9.026049613952637,3.857367753982544
1744304525.915,-1.3448143005371094,9.03562068939209,3.795152187347412
1744304525.989,-1.7611804008483887,9.093050956726074,3.8765110969543457
1744304525.989,-1.416601538658142,9.049978256225586,3.8669395446777344
1744304525.989,-0.39722275733947754,9.102622032165527,4.048800468444824
1744304525.989,-0.28714898228645325,9.183980941772461,4.02008581161499
1744304525.989,-0.1914326548576355,9.088264465332031,4.034442901611328
1744304525.989,-1.2490980625152588,8.896832466125488,3.9530842304229736
1744304525.989,-1.0911661386489868,8.944690704345703,3.919583559036255
1744304525.989,-1.3448143005371094,8.762829780578613,3.929155111312866
1744304526.064,-0.5168681740760803,8.686256408691406,4.02008581161499
1744304526.064,-0.023929081857204437,8.781972885131836,4.134945392608643
1744304526.064,-0.8375178575515747,8.892046928405762,4.278519630432129
1744304526.064,-1.0385221242904663,8.853759765625,4.039228916168213
1744304526.064,-0.7513731122016907,9.174409866333008,4.158874034881592
1744304526.064,0.014357448555529118,9.36584186553955,4.111016273498535
1744304526.064,0.35893622040748596,9.270126342773438,4.000942230224609
1744304526.064,0.19621846079826355,9.01169204711914,3.9674415588378906
1744304526.138,-0.46900999546051025,8.882474899291992,3.9674415588378906
1744304526.138,-1.1342384815216064,8.978191375732422,4.178017616271973
1744304526.138,-2.3163349628448486,8.9590482711792,4.206732273101807
1744304526.138,-1.7133221626281738,8.935118675231934,4.297662734985352
1744304526.138,-1.239526391029358,8.877689361572266,4.168446063995361
1744304526.138,-1.0289504528045654,8.882474899291992,4.292877197265625
1744304526.138,-0.15314611792564392,8.944690704345703,4.178017616271973
1744304526.138,-0.3302213251590729,9.01169204711914,4.139730930328369
1744304526.212,-0.32543548941612244,8.997334480285645,4.178017616271973
1744304526.212,-0.023929081857204437,8.858545303344727,4.173231601715088
1744304526.212,-0.06700142472982407,8.882474899291992,4.115801811218262
1744304526.212,-0.4737958014011383,8.748472213745117,4.158874034881592
1744304526.212,-0.6604426503181458,8.676684379577637,4.034442901611328
1744304526.212,-0.9619490504264832,8.561824798583984,4.125373363494873
1744304526.212,-0.9332341551780701,8.533110618591309,4.187589168548584
1744304526.212,-1.0002355575561523,8.729329109191895,4.321591854095459
1744304526.286,-0.923662543296814,8.954261779785156,4.374236106872559
1744304526.286,-0.6125844717025757,9.203125,4.20194673538208
1744304526.286,-0.5072965025901794,9.337127685546875,4.259376525878906
1744304526.286,-0.8470894694328308,9.466344833374023,4.364664554595947
1744304526.286,-0.9332341551780701,9.504631042480469,4.273733615875244
1744304526.286,-0.8997334241867065,9.265339851379395,4.182803153991699
1744304526.286,-0.6939433217048645,9.049978256225586,4.2258758544921875
1744304526.286,-0.8231604099273682,8.901618003845215,4.115801811218262
1744304526.361,-0.7753022313117981,8.6096830368042,4.067943572998047
1744304526.361,-0.5455830693244934,8.547467231750488,3.9100117683410645
1744304526.361,-0.5742979645729065,8.566611289978027,3.8765110969543457
1744304526.361,-0.27757734060287476,8.518753051757812,4.20194673538208
1744304526.361,-0.4642241597175598,8.748472213745117,3.9243693351745605
1744304526.361,-0.38765111565589905,9.188767433166504,3.823867082595825
1744304526.361,-0.9763064980506897,9.518988609313965,4.077515602111816
1744304526.361,-0.7705163955688477,9.528559684753418,4.450809001922607
1744304526.435,-0.339792937040329,9.710420608520508,3.3404996395111084
1744304526.435,-1.019378900527954,9.743921279907227,3.2064969539642334
1744304526.435,-0.38765111565589905,9.126551628112793,3.5462896823883057
1744304526.435,-1.4453164339065552,9.150480270385742,2.086615800857544
1744304526.435,-2.0339717864990234,9.523774147033691,3.015064239501953
1744304526.435,-0.7513731122016907,8.423036575317383,4.283305644989014
1744304526.435,-1.2538838386535645,8.772400856018066,3.4314301013946533
1744304526.435,-1.0098072290420532,8.719757080078125,3.436216115951538
1744304526.509,-0.9715206623077393,8.901618003845215,3.4027152061462402
1744304526.509,-0.7418015003204346,9.322770118713379,3.2974274158477783
1744304526.509,-0.4115802049636841,9.475915908813477,3.555861473083496
1744304526.509,-0.21536172926425934,9.049978256225586,3.421858549118042
1744304526.509,-0.4259376525878906,8.839402198791504,3.5750045776367188
1744304526.509,-0.8088029623031616,9.03562068939209,3.5606472492218018
1744304526.509,-1.2155972719192505,9.250982284545898,3.6085054874420166
1744304526.509,-0.9954497814178467,9.772636413574219,3.68986439704895
1744304526.583,-0.923662543296814,10.031070709228516,3.7616515159606934
1744304526.583,-0.6604426503181458,10.533581733703613,3.6659352779388428
1744304526.583,-0.3445787727832794,10.141144752502441,3.7903664112091064
1744304526.583,-0.37807947397232056,9.475915908813477,3.977013349533081
1744304526.583,-0.45943835377693176,8.504395484924316,3.8765110969543457
1744304526.583,-0.4020085632801056,7.944454669952393,3.8334388732910156
1744304526.583,-1.072022795677185,7.489802360534668,3.7472941875457764
1744304526.583,-1.5649619102478027,7.619019508361816,3.7425081729888916
1744304526.657,-1.4692455530166626,8.580968856811523,3.933940887451172
1744304526.657,-1.0098072290420532,9.514202117919922,4.163660049438477
1744304526.657,-0.5072965025901794,10.327791213989258,4.211518287658691
1744304526.657,-0.3015064299106598,10.653226852416992,4.4795241355896
1744304526.657,0.08135887235403061,10.332576751708984,4.60874080657959
1744304526.657,-0.03350071236491203,9.523774147033691,4.3311638832092285
1744304526.657,-0.03828652948141098,8.734114646911621,4.345520973205566
1744304526.657,-0.7322298884391785,8.169387817382812,4.192375183105469
1744304526.732,-1.4213874340057373,7.805665969848633,4.077515602111816
1744304526.732,-1.742037057876587,7.982741355895996,4.1493024826049805
1744304526.732,-1.6415349245071411,8.552253723144531,4.158874034881592
1744304526.732,-1.0337363481521606,9.19355297088623,4.197160720825195
1744304526.732,-0.23929080367088318,9.830066680908203,4.192375183105469
1744304526.732,-0.22971917688846588,9.93056869506836,4.216303825378418
1744304526.732,-0.363722026348114,9.657776832580566,4.06315803527832
1744304526.732,-0.49772489070892334,9.212696075439453,3.9674415588378906
1744304526.806,-0.5599405169487,8.77718734741211,3.8525819778442383
1744304526.806,-0.7896596789360046,8.614469528198242,3.7903664112091064
1744304526.806,-1.0145930051803589,8.614469528198242,3.8382246494293213
1744304526.806,-0.8901618123054504,8.643183708190918,3.87172532081604
1744304526.806,-0.9428057670593262,8.762829780578613,3.943512439727783
1744304526.806,-1.1438100337982178,8.9590482711792,3.9817991256713867
1744304526.806,-1.6654640436172485,9.069121360778809,3.9817991256713867
1744304526.806,-0.9140908718109131,9.169623374938965,4.005728244781494
1744304526.88,-1.177310824394226,9.088264465332031,3.8190813064575195
1744304526.88,-1.3687434196472168,9.212696075439453,3.7616515159606934
1744304526.88,-1.3017419576644897,9.260554313659668,3.828652858734131
1744304526.88,-1.1964540481567383,9.404129028320312,3.843010425567627
1744304526.88,-1.2251689434051514,9.418486595153809,3.8334388732910156
1744304526.88,-1.3974583148956299,9.332341194152832,3.87172532081604
1744304526.88,-1.3304568529129028,9.332341194152832,3.8669395446777344
1744304526.88,-1.239526391029358,9.284482955932617,3.905225992202759
1744304526.954,-1.1677391529083252,9.203125,3.943512439727783
1744304526.954,-0.8231604099273682,9.002120018005371,3.9243693351745605
1744304526.954,-1.0002355575561523,9.064335823059082,4.005728244781494
1744304526.954,-0.7992312908172607,9.150480270385742,4.10623025894165
1744304526.954,-0.5312256217002869,9.19355297088623,4.0583720207214355
1744304526.954,-0.34936457872390747,9.183980941772461,4.2258758544921875
1744304526.954,-1.5027462244033813,9.026049613952637,4.091872692108154
1744304526.954,-1.3160994052886963,8.887260437011719,4.144516944885254
1744304527.028,-0.6125844717025757,8.762829780578613,4.240232944488525
1744304527.028,-0.5120823383331299,8.628826141357422,4.1493024826049805
1744304527.028,0.11485958844423294,8.379963874816895,4.053586483001709
1744304527.028,-0.5455830693244934,8.657541275024414,4.024871349334717
1744304527.028,-0.6939433217048645,8.887260437011719,4.077515602111816
1744304527.028,-0.8566610813140869,9.002120018005371,4.06315803527832
1744304527.028,-0.7992312908172607,9.341913223266602,4.125373363494873
1744304527.028,-0.7800880670547485,9.31319808959961,4.1493024826049805
1744304527.103,-0.7800880670547485,9.236625671386719,4.163660049438477
1744304527.103,-0.7705163955688477,9.040407180786133,4.005728244781494
1744304527.103,0.06700142472982407,8.892046928405762,4.091872692108154
1744304527.103,-0.363722026348114,8.892046928405762,4.10623025894165
1744304527.103,-0.49772489070892334,8.729329109191895,4.1205878257751465
1744304527.103,-0.6365135312080383,8.882474899291992,4.144516944885254
1744304527.103,-0.9428057670593262,8.901618003845215,3.9578700065612793
1744304527.103,-1.3160994052886963,9.03562068939209,4.28809118270874
1744304527.178,-1.2060257196426392,8.892046928405762,4.134945392608643
1744304527.178,-0.028714897111058235,8.92554759979248,4.182803153991699
1744304527.178,0.28714898228645325,8.734114646911621,4.292877197265625
1744304527.178,-0.23929080367088318,8.647970199584961,4.3311638832092285
1744304527.178,-0.8231604099273682,8.542681694030762,4.374236106872559
1744304527.178,-1.2443121671676636,8.49960994720459,4.460380554199219
1744304527.178,-1.584105134010315,8.42782211303711,4.455595016479492
1744304527.178,-1.4357448816299438,8.39432144165039,4.417308330535889
1744304527.252,-1.0768086910247803,8.590539932250977,4.307234764099121
1744304527.252,-1.139024257659912,8.729329109191895,4.379021644592285
1744304527.252,-0.8853759765625,8.815473556518555,4.422094345092773
1744304527.252,-0.9906639456748962,9.006906509399414,4.235447406768799
1744304527.252,-1.0385221242904663,9.069121360778809,4.173231601715088
1744304527.252,-0.923662543296814,9.059550285339355,4.134945392608643
1744304527.252,-0.5934411883354187,9.10740852355957,4.192375183105469
1744304527.252,-0.40679436922073364,9.174409866333008,4.125373363494873
1744304527.326,-0.06700142472982407,9.169623374938965,4.125373363494873
1744304527.326,-0.23929080367088318,9.016477584838867,4.130159378051758
1744304527.326,-0.5312256217002869,9.021263122558594,4.211518287658691
1744304527.326,-0.8327320218086243,8.997334480285645,4.139730930328369
1744304527.326,-0.8088029623031616,9.030835151672363,4.082301139831543
1744304527.326,-0.9475916028022766,9.073907852172852,4.130159378051758
1744304527.326,-0.9858781099319458,9.093050956726074,4.087087154388428
1744304527.326,-0.9763064980506897,9.073907852172852,4.134945392608643
1744304527.401,-1.0480937957763672,9.073907852172852,4.000942230224609
1744304527.401,-1.1868823766708374,9.102622032165527,3.943512439727783
1744304527.401,-1.3017419576644897,8.729329109191895,4.06315803527832
1744304527.401,-1.2730270624160767,8.600111961364746,3.9961564540863037
1744304527.401,-1.2155972719192505,8.911190032958984,3.752079963684082
1744304527.401,-0.8423036336898804,9.64341926574707,4.178017616271973
1744304527.401,-0.6269419193267822,10.299076080322266,4.532167911529541
1744304527.401,-0.6843717098236084,10.677155494689941,4.34073543548584
1744304527.475,-0.4642241597175598,10.71065616607666,4.460380554199219
1744304527.475,-0.2632198929786682,10.404364585876465,4.393379211425781
1744304527.475,-0.38765111565589905,9.667348861694336,4.249804973602295
1744304527.475,-0.45943835377693176,8.537896156311035,4.268948078155518
1744304527.475,-0.6125844717025757,7.40365743637085,4.096658706665039
1744304527.475,-0.6700142621994019,6.781501770019531,4.130159378051758
1744304527.475,-1.0576653480529785,6.628355503082275,4.034442901611328
1744304527.475,-1.5266753435134888,7.106936931610107,4.139730930328369
1744304527.549,-2.1871180534362793,7.810451984405518,4.077515602111816
1744304527.549,-1.7228938341140747,8.743685722351074,4.158874034881592
1744304527.549,-0.8853759765625,9.595561027526855,4.355092525482178
1744304527.549,-0.569512128829956,10.045428276062012,4.412522315979004
1744304527.549,-0.23450499773025513,9.940139770507812,4.125373363494873
1744304527.549,-0.3302213251590729,9.528559684753418,4.536953926086426
1744304527.549,-0.4833674430847168,9.002120018005371,4.46995210647583
1744304527.549,-0.8040171265602112,8.470894813537598,4.292877197265625
1744304527.623,-1.0624512434005737,8.322534561157227,4.422094345092773
1744304527.623,-1.019378900527954,8.528324127197266,4.450809001922607
1744304527.623,-0.9954497814178467,8.815473556518555,4.589597702026367
1744304527.623,-0.9284483194351196,9.188767433166504,4.685314178466797
1744304527.623,-0.9858781099319458,9.47113037109375,4.627884387969971
1744304527.623,-1.1198810338974,9.404129028320312,4.575240135192871
1744304527.623,-1.139024257659912,9.308412551879883,4.513024806976318
1744304527.623,-0.7418015003204346,9.088264465332031,4.4938812255859375
1744304527.697,-0.7896596789360046,8.92554759979248,4.077515602111816
1744304527.697,-0.35893622040748596,8.781972885131836,4.264162063598633
1744304527.697,2.3450498580932617,7.963598251342773,4.637455940246582
1744304527.697,-2.818845748901367,9.002120018005371,4.3311638832092285
1744304527.697,-3.9100117683410645,9.322770118713379,4.3311638832092285
1744304527.697,-3.6420061588287354,9.231839179992676,4.364664554595947
1744304527.697,-1.8425391912460327,8.695828437805176,4.278519630432129
1744304527.697,-1.201239824295044,8.2124605178833,4.450809001922607
1744304527.772,0.0047858161851763725,8.097600936889648,4.312020301818848
1744304527.772,0.5360113978385925,8.30817699432373,4.1205878257751465
1744304527.772,0.588655412197113,8.265104293823242,4.077515602111816
1744304527.772,0.44986671209335327,8.51396656036377,4.067943572998047
1744304527.772,0,8.877689361572266,4.163660049438477
1744304527.772,-0.40679436922073364,9.126551628112793,4.134945392608643
1744304527.772,-0.6748000979423523,9.346698760986328,4.115801811218262
1744304527.772,-0.5455830693244934,9.456772804260254,4.2545905113220215
1744304527.846,-0.5360113978385925,9.509416580200195,4.235447406768799
1744304527.846,-0.588655412197113,9.442415237426758,4.111016273498535
1744304527.846,-0.6460852026939392,9.255768775939941,4.091872692108154
1744304527.846,-0.6317277550697327,9.093050956726074,4.168446063995361
1744304527.846,-0.6556568145751953,8.997334480285645,4.187589168548584
1744304527.846,-0.8997334241867065,8.872902870178223,4.34073543548584
1744304527.846,-0.6939433217048645,8.738900184631348,4.312020301818848
1744304527.846,-0.6939433217048645,8.676684379577637,4.350306987762451
1744304527.92,-0.9188767075538635,8.75804328918457,4.436451435089111
1744304527.92,-0.952377438545227,8.920761108398438,4.584811687469482
1744304527.92,-0.7561589479446411,8.834616661071777,4.651813507080078
1744304527.92,-0.6412993669509888,8.695828437805176,4.52259635925293
1744304527.92,-0.7418015003204346,8.6096830368042,4.4795241355896
1744304527.92,-0.8949476480484009,8.877689361572266,4.4268798828125
1744304527.92,-0.7561589479446411,8.978191375732422,4.551311016082764
1744304527.92,-0.588655412197113,8.978191375732422,4.508238792419434
1744304527.994,-1.3113136291503906,8.810688018798828,4.474738121032715
1744304527.994,-0.765730619430542,8.772400856018066,4.307234764099121
1744304527.994,-0.569512128829956,8.710185050964355,4.374236106872559
1744304527.994,-0.6843717098236084,8.657541275024414,4.283305644989014
1744304527.994,-1.9621846675872803,8.604897499084473,4.527381896972656
1744304527.994,-0.4307234585285187,8.657541275024414,4.034442901611328
1744304527.994,0.3541503846645355,8.982976913452148,4.24501895904541
1744304527.994,-0.6125844717025757,8.93990421295166,4.297662734985352
1744304528.069,-1.5888910293579102,8.877689361572266,4.345520973205566
1744304528.069,-1.4788172245025635,9.03562068939209,4.278519630432129
1744304528.069,-0.44029510021209717,9.21748161315918,4.182803153991699
1744304528.069,-0.382865309715271,9.179195404052734,4.192375183105469
1744304528.069,-0.4546525478363037,9.102622032165527,4.240232944488525
1744304528.069,-0.5742979645729065,9.021263122558594,4.168446063995361
1744304528.069,-0.4211518168449402,8.901618003845215,4.2258758544921875
1744304528.069,-0.8423036336898804,8.935118675231934,4.249804973602295
1744304528.143,-1.0098072290420532,8.868117332458496,4.316806316375732
1744304528.143,-1.2060257196426392,8.844188690185547,4.350306987762451
1744304528.143,-1.1581674814224243,8.662327766418457,4.335949420928955
1744304528.143,-1.296956181526184,8.509181022644043,4.249804973602295
1744304528.143,-1.5458186864852905,8.51396656036377,4.335949420928955
1744304528.143,-1.2538838386535645,8.494823455810547,4.302448749542236
1744304528.143,-1.229954719543457,8.714971542358398,4.216303825378418
1744304528.143,-1.1007376909255981,8.724542617797852,4.259376525878906
1744304528.217,-1.110309362411499,8.978191375732422,4.187589168548584
1744304528.217,-1.3687434196472168,9.064335823059082,4.101444244384766
1744304528.217,-1.651106595993042,9.27969741821289,4.1493024826049805
1744304528.217,-1.8186101913452148,9.475915908813477,4.24501895904541
1744304528.217,-1.9717562198638916,9.37541389465332,4.182803153991699
1744304528.217,-2.0914015769958496,9.274911880493164,4.125373363494873
1744304528.217,-2.2014753818511963,9.13133716583252,4.10623025894165
1744304528.217,-2.1823322772979736,8.820259094238281,3.9865849018096924
1744304528.291,-1.9478272199630737,8.77718734741211,3.8812968730926514
1744304528.291,-1.7659661769866943,8.714971542358398,3.8477962017059326
1744304528.291,-1.904754877090454,8.76761531829834,3.929155111312866
1744304528.291,-1.464459776878357,8.848974227905273,3.87172532081604
1744304528.291,-1.043307900428772,9.04519271850586,3.814295530319214
1744304528.291,-1.0098072290420532,9.19355297088623,3.843010425567627
1744304528.291,-0.9954497814178467,9.21748161315918,3.823867082595825
1744304528.291,-1.2825987339019775,9.423272132873535,3.785580635070801
1744304528.365,-1.5649619102478027,9.562060356140137,3.6515777111053467
1744304528.365,-1.622391700744629,9.65299129486084,3.646791934967041
1744304528.365,-1.6654640436172485,9.518988609313965,3.6085054874420166
1744304528.365,-1.4836030006408691,9.361056327819824,3.5462896823883057
1744304528.365,-1.387886643409729,9.160052299499512,3.5319323539733887
1744304528.365,-1.229954719543457,8.748472213745117,3.364428758621216
1744304528.365,-1.2251689434051514,8.68147087097168,3.2064969539642334
1744304528.365,-1.072022795677185,8.518753051757812,3.163424491882324
1744304528.44,-0.9475916028022766,8.408679008483887,3.1107804775238037
1744304528.44,-0.6748000979423523,8.336892127990723,3.034207344055176
1744304528.44,-0.8901618123054504,8.552253723144531,3.3404996395111084
1744304528.44,-0.8375178575515747,8.839402198791504,3.675506830215454
1744304528.44,-0.7896596789360046,9.174409866333008,3.991370677947998
1744304528.44,-0.9284483194351196,9.485487937927246,4.182803153991699
1744304528.44,-0.7848738431930542,9.538131713867188,4.422094345092773
1744304528.44,-0.765730619430542,9.394556999206543,4.412522315979004
1744304528.514,-0.6891575455665588,9.447200775146484,4.498667240142822
1744304528.514,-0.7035149931907654,9.408914566040039,4.613526821136475
1744304528.514,-0.6987291574478149,9.447200775146484,4.60874080657959
1744304528.514,-0.20579010248184204,9.36584186553955,4.513024806976318
1744304528.514,-0.5551546812057495,9.284482955932617,4.455595016479492
1744304528.514,-0.9140908718109131,9.160052299499512,4.441237449645996
1744304528.514,-0.727444052696228,8.944690704345703,4.4938812255859375
1744304528.514,-1.2538838386535645,8.901618003845215,4.450809001922607
1744304528.588,-1.387886643409729,8.75804328918457,4.450809001922607
1744304528.588,-1.3687434196472168,8.628826141357422,4.335949420928955
1744304528.588,-1.8233959674835205,8.58575439453125,4.259376525878906
1744304528.588,-1.2490980625152588,8.624040603637695,4.20194673538208
1744304528.588,-1.4788172245025635,8.710185050964355,4.230661392211914
1744304528.588,-1.359171748161316,8.695828437805176,4.1493024826049805
1744304528.588,-1.2060257196426392,8.729329109191895,4.197160720825195
1744304528.588,-1.0528795719146729,8.906403541564941,4.407736778259277
1744304528.662,-1.177310824394226,8.868117332458496,4.20194673538208
1744304528.662,-0.9715206623077393,8.906403541564941,4.163660049438477
1744304528.662,-0.9093050956726074,8.872902870178223,4.268948078155518
1744304528.662,-0.5599405169487,8.877689361572266,4.192375183105469
1744304528.662,-0.5742979645729065,8.647970199584961,4.144516944885254
1744304528.662,-0.4020085632801056,7.982741355895996,4.096658706665039
1744304528.662,-0.22971917688846588,8.542681694030762,4.082301139831543
1744304528.662,0.03350071236491203,8.446965217590332,4.2545905113220215
1744304528.736,0.08135887235403061,8.595325469970703,4.187589168548584
1744304528.736,-0.2010042816400528,8.566611289978027,4.230661392211914
1744304528.736,-0.3110780417919159,8.738900184631348,4.4651665687561035
1744304528.736,-0.4929390549659729,8.667113304138184,4.46995210647583
1744304528.736,-0.4833674430847168,8.82983112335205,4.589597702026367
1744304528.736,-0.5264397859573364,8.973404884338379,4.560883045196533
1744304528.736,-0.22493335604667664,9.083478927612305,4.541739463806152
1744304528.736,-0.14357449114322662,9.160052299499512,4.618312835693359
1744304528.811,-0.19621846079826355,9.356270790100098,4.5704545974731445
1744304528.811,-0.6221560835838318,8.9590482711792,4.460380554199219
1744304528.811,-0.6604426503181458,8.906403541564941,4.484309673309326
1744304528.811,-0.5455830693244934,8.729329109191895,4.4938812255859375
1744304528.811,-0.5599405169487,8.815473556518555,4.398165225982666
1744304528.811,-0.6939433217048645,8.982976913452148,4.508238792419434
1744304528.811,-0.7370156645774841,8.93990421295166,4.4268798828125
1744304528.811,-0.8470894694328308,8.82983112335205,4.594383716583252
1744304528.885,-0.7561589479446411,8.93990421295166,4.580026149749756
1744304528.885,-0.48815324902534485,8.93990421295166,4.627884387969971
1744304528.885,-0.10528795421123505,8.786758422851562,4.618312835693359
1744304528.885,-0.43550926446914673,8.719757080078125,4.685314178466797
1744304528.885,-0.5503688454627991,8.748472213745117,4.618312835693359
1744304528.885,-0.5503688454627991,8.643183708190918,4.632669925689697
1744304528.885,-0.6365135312080383,8.566611289978027,4.642241477966309
1744304528.885,-0.6221560835838318,8.57618236541748,4.4795241355896
1744304528.959,-0.8758043646812439,8.719757080078125,4.450809001922607
1744304528.959,-0.6460852026939392,8.566611289978027,4.4795241355896
1744304528.959,-0.382865309715271,8.557039260864258,4.460380554199219
1744304528.959,0.0909305065870285,8.652755737304688,4.503453254699707
1744304528.959,0.6269419193267822,8.537896156311035,4.4795241355896
1744304528.959,-0.9810923337936401,8.710185050964355,4.46995210647583
1744304528.959,-0.2010042816400528,8.638398170471191,4.680528163909912
1744304528.959,-0.5072965025901794,8.801115989685059,4.623098373413086
1744304529.033,-1.1964540481567383,9.183980941772461,4.714028835296631
1744304529.033,-0.6604426503181458,9.150480270385742,4.728386402130127
1744304529.033,0.028714897111058235,9.016477584838867,4.627884387969971
1744304529.033,-0.35893622040748596,9.064335823059082,4.517810344696045
1744304529.033,-0.8327320218086243,9.327555656433105,4.5704545974731445
1744304529.033,-0.6748000979423523,9.322770118713379,4.541739463806152
1744304529.033,-0.7848738431930542,9.126551628112793,4.4938812255859375
1744304529.033,-0.8614469170570374,9.112194061279297,4.364664554595947
1744304529.108,-0.6173703074455261,8.762829780578613,4.259376525878906
1744304529.108,-0.34936457872390747,8.647970199584961,4.355092525482178
1744304529.108,0.028714897111058235,8.710185050964355,4.273733615875244
1744304529.108,-0.11964540183544159,7.906168460845947,4.369450092315674
1744304529.108,-0.023929081857204437,8.753257751464844,4.0152997970581055
1744304529.108,0.4020085632801056,8.915975570678711,3.8765110969543457
1744304529.108,0.3924369215965271,9.01169204711914,3.766437292098999
1744304529.108,0.4929390549659729,9.164837837219238,3.6085054874420166
1744304529.182,0.708300769329071,9.01169204711914,3.6085054874420166
1744304529.182,0.8040171265602112,9.207910537719727,3.5223608016967773
1744304529.182,0.8566610813140869,9.590775489807129,3.6228628158569336
1744304529.182,0.6365135312080383,9.145694732666016,3.87172532081604
1744304529.182,0.5120823383331299,9.39934253692627,4.000942230224609
1744304529.182,0.3206496834754944,9.432844161987305,4.134945392608643
1744304529.182,0.16750356554985046,9.686491966247559,4.211518287658691
1744304529.182,0.31586387753486633,9.719992637634277,4.216303825378418
1744304529.256,0.45943835377693176,9.514202117919922,4.206732273101807
1744304529.256,0.6987291574478149,9.38498592376709,4.211518287658691
1744304529.256,0.8949476480484009,9.140909194946289,4.1493024826049805
1744304529.256,0.8853759765625,9.054763793945312,4.134945392608643
1744304529.256,0.765730619430542,8.796330451965332,3.737722396850586
1744304529.256,0.708300769329071,8.82983112335205,4.048800468444824
1744304529.256,0.569512128829956,8.791543960571289,3.823867082595825
1744304529.256,0.5455830693244934,8.820259094238281,3.8047239780426025
1744304529.33,0.5647262930870056,9.054763793945312,3.464931011199951
1744304529.33,0.3015064299106598,9.303627014160156,3.780794858932495
1744304529.33,-0.3445787727832794,9.56684684753418,3.694650173187256
1744304529.33,-0.30629223585128784,9.370628356933594,3.598933696746826
1744304529.33,-0.44029510021209717,9.121766090393066,3.675506830215454
1744304529.33,-0.3732936680316925,8.853759765625,3.5750045776367188
1744304529.33,-0.4929390549659729,8.825044631958008,3.5462896823883057
1744304529.33,-1.1916682720184326,8.729329109191895,3.5032174587249756
1744304529.404,-0.679585874080658,8.772400856018066,3.4027152061462402
1744304529.404,-0.24407662451267242,8.968619346618652,3.570218801498413
1744304529.404,0.5838695764541626,9.01169204711914,3.7137932777404785
1744304529.404,1.2108114957809448,9.0978364944458,3.823867082595825
1744304529.404,1.4070299863815308,9.03562068939209,3.886082649230957
1744304529.404,1.584105134010315,9.006906509399414,3.890868663787842
1744304529.404,0.6843717098236084,8.930333137512207,3.9817991256713867
1744304529.404,0.382865309715271,8.853759765625,3.977013349533081
1744304529.479,0.03350071236491203,8.834616661071777,4.130159378051758
1744304529.479,-0.2536482512950897,9.140909194946289,4.163660049438477
1744304529.479,-0.4211518168449402,9.174409866333008,4.182803153991699
1744304529.479,-0.6125844717025757,9.284482955932617,4.297662734985352
1744304529.479,-0.3732936680316925,9.241411209106445,4.10623025894165
1744304529.479,-0.07657305896282196,9.303627014160156,4.211518287658691
1744304529.479,0.023929081857204437,9.236625671386719,4.335949420928955
1744304529.479,0.32543548941612244,9.284482955932617,4.38380765914917
1744304529.553,0.5120823383331299,9.222268104553223,4.412522315979004
1744304529.553,0.2536482512950897,9.294054985046387,4.316806316375732
1744304529.553,-0.2536482512950897,9.10740852355957,4.292877197265625
1744304529.553,0.5647262930870056,9.13133716583252,4.398165225982666
1744304529.553,0.36850783228874207,8.724542617797852,4.417308330535889
1744304529.553,0.540797233581543,8.51396656036377,4.388593673706055
1744304529.553,0.49772489070892334,8.466109275817871,4.489095687866211
1744304529.553,0.4020085632801056,8.317748069763184,4.527381896972656
1744304529.627,0.11964540183544159,8.303391456604004,4.508238792419434
1744304529.627,-0.16271774470806122,8.289033889770508,4.642241477966309
1744304529.627,-0.44029510021209717,8.494823455810547,4.690099716186523
1744304529.627,-0.39722275733947754,8.509181022644043,4.737957954406738
1744304529.627,-0.4833674430847168,8.662327766418457,4.6757426261901855
1744304529.627,-0.6460852026939392,8.705399513244629,4.857603549957275
1744304529.627,-0.6843717098236084,8.662327766418457,4.757101058959961
1744304529.627,-0.727444052696228,8.877689361572266,4.723600387573242
1744304529.701,-0.8853759765625,9.006906509399414,4.685314178466797
1744304529.701,-0.7513731122016907,8.915975570678711,4.455595016479492
1744304529.701,-0.7705163955688477,9.083478927612305,4.450809001922607
1744304529.701,-0.6604426503181458,9.155266761779785,4.379021644592285
1744304529.701,-0.5025107264518738,9.21748161315918,4.3311638832092285
1744304529.701,-0.3302213251590729,9.112194061279297,4.393379211425781
1744304529.701,-0.25843408703804016,8.805901527404785,4.173231601715088
1744304529.701,-0.22971917688846588,8.815473556518555,4.20194673538208
1744304529.776,-0.27757734060287476,8.662327766418457,4.144516944885254
1744304529.776,-0.4737958014011383,8.346463203430176,3.9817991256713867
1744304529.776,-0.8135887384414673,8.40389347076416,4.077515602111816
1744304529.776,-1.0145930051803589,8.39432144165039,4.221089839935303
1744304529.776,-1.2060257196426392,8.657541275024414,3.7329366207122803
1744304529.776,-1.3639576435089111,8.743685722351074,3.54150390625
1744304529.776,-1.201239824295044,8.714971542358398,3.598933696746826
1744304529.776,-1.1007376909255981,8.944690704345703,3.584576368331909
1744304529.85,-1.072022795677185,8.935118675231934,3.5223608016967773
1744304529.85,-1.0480937957763672,8.892046928405762,3.2926416397094727
1744304529.85,-1.3831008672714233,9.093050956726074,3.2926416397094727
1744304529.85,-1.5027462244033813,9.413700103759766,3.1921393871307373
1744304529.85,-1.6846072673797607,9.255768775939941,3.1490671634674072
1744304529.85,-1.1964540481567383,9.633848190307617,3.062922477722168
1744304529.85,-0.6077986359596252,10.059785842895508,3.3548572063446045
1744304529.85,-0.6843717098236084,10.28471851348877,3.1729960441589355
1744304529.924,-0.9667348861694336,10.53836727142334,3.273498296737671
1744304529.924,-1.3783150911331177,10.471365928649902,3.3883578777313232
1744304529.924,-1.6941789388656616,10.701085090637207,3.469716787338257
1744304529.924,-1.5936768054962158,10.792015075683594,3.5606472492218018
1744304529.924,-1.3448143005371094,11.016948699951172,3.5510756969451904
1744304529.924,-1.306527853012085,11.021734237670898,3.5606472492218018
1744304529.924,-1.1294525861740112,10.662798881530762,3.330928087234497
1744304529.924,-0.8901618123054504,10.236861228942871,3.2017109394073486
1744304529.998,-0.7130866050720215,9.576417922973633,3.1012089252471924
1744304529.998,-0.9140908718109131,8.968619346618652,3.0724940299987793
1744304529.998,-0.6221560835838318,8.801115989685059,3.034207344055176
1744304529.998,-0.4115802049636841,8.456537246704102,3.0868513584136963
1744304529.998,-0.29672059416770935,8.265104293823242,3.0820655822753906
1744304529.998,-0.4020085632801056,8.083243370056152,2.9815635681152344
1744304529.998,-0.5503688454627991,7.9683837890625,3.015064239501953
1744304529.998,-0.952377438545227,7.949240684509277,3.134709596633911
1744304530.072,-0.8710185289382935,7.987527370452881,3.091637372970581
1744304530.072,-1.0241646766662598,8.121530532836914,3.254354953765869
1744304530.072,-0.8710185289382935,8.207674980163574,3.421858549118042
1744304530.072,-0.7944455146789551,8.40389347076416,3.4170727729797363
1744304530.072,-0.8470894694328308,8.561824798583984,3.4457876682281494
1744304530.072,-0.5599405169487,8.848974227905273,3.4553592205047607
1744304530.072,-0.6700142621994019,9.006906509399414,3.5462896823883057
1744304530.072,-0.6987291574478149,9.284482955932617,3.6659352779388428
1744304530.147,-0.5120823383331299,9.317984580993652,3.843010425567627
1744304530.147,-0.7418015003204346,9.169623374938965,3.7568657398223877
1744304530.147,-0.6077986359596252,9.255768775939941,3.766437292098999
1744304530.147,-0.5599405169487,9.250982284545898,3.7712230682373047
1744304530.147,-0.44986671209335327,8.877689361572266,3.7137932777404785
1744304530.147,-0.5360113978385925,8.839402198791504,3.646791934967041
1744304530.147,-0.8901618123054504,8.94947624206543,3.7712230682373047
1744304530.147,-1.8808257579803467,9.040407180786133,3.570218801498413
1744304530.221,-1.7324655055999756,8.848974227905273,3.6850783824920654
1744304530.221,-1.8616825342178345,8.686256408691406,3.6850783824920654
1744304530.221,-1.651106595993042,8.652755737304688,3.68986439704895
1744304530.221,-1.3974583148956299,8.76761531829834,3.584576368331909
1744304530.221,-1.268241286277771,8.461322784423828,3.4122869968414307
1744304530.221,-1.4070299863815308,8.437394142150879,3.6372203826904297
1744304530.221,-1.622391700744629,8.34167766571045,3.4457876682281494
1744304530.221,-1.7946810722351074,8.111958503723145,3.3357138633728027
1744304530.295,-1.966970443725586,7.824809551239014,2.98634934425354
1744304530.295,-1.7898952960968018,7.523303031921387,2.804488182067871
1744304530.295,-1.612820029258728,7.336656093597412,2.6609137058258057
1744304530.295,-1.4070299863815308,7.159581184387207,2.340264081954956
1744304530.295,-1.3639576435089111,6.853288650512695,2.115330696105957
1744304530.295,-1.268241286277771,6.709714412689209,1.8138242959976196
1744304530.295,-1.3256710767745972,6.781501770019531,1.7085363864898682
1744304530.295,-1.2586696147918701,6.810216426849365,1.5075321197509766
1744304530.369,-1.0863802433013916,7.240940093994141,1.5936768054962158
1744304530.369,-0.8375178575515747,7.580732822418213,1.7372512817382812
1744304530.369,-0.8758043646812439,7.824809551239014,1.8808257579803467
1744304530.369,-1.0337363481521606,7.88223934173584,1.928683876991272
1744304530.369,-1.0768086910247803,7.695592403411865,1.966970443725586
1744304530.369,-0.9380199909210205,7.537660598754883,1.9861136674880981
1744304530.369,-0.727444052696228,6.9872918128967285,2.0818300247192383
1744304530.369,-0.6891575455665588,6.034914016723633,2.014828681945801
1744304530.444,-0.6843717098236084,5.403186321258545,1.8712540864944458
1744304530.444,-0.7561589479446411,4.407736778259277,1.9334697723388672
1744304530.444,-0.746587336063385,3.886082649230957,1.3687434196472168
1744304530.444,-0.727444052696228,3.512789011001587,1.0480937957763672
1744304530.444,-0.8088029623031616,3.843010425567627,0.6173703074455261
1744304530.444,-0.8135887384414673,4.302448749542236,0.339792937040329
1744304530.444,-0.4020085632801056,4.737957954406738,0.27757734060287476
1744304530.444,0.023929081857204437,5.1399664878845215,0.5982270240783691
1744304530.518,0.028714897111058235,5.273969650268555,1.1055235862731934
1744304530.518,-0.34936457872390747,5.17346715927124,2.3354783058166504
1744304530.518,-0.4020085632801056,5.3792572021484375,6.972934246063232
1744304530.518,-0.9188767075538635,6.312491416931152,5.297898292541504
1744304530.518,0.4211518168449402,7.207438945770264,8.217246055603027
1744304530.518,1.4405306577682495,7.7673797607421875,7.470659255981445
1744304530.518,1.622391700744629,11.696535110473633,6.824573993682861
1744304530.518,0.4929390549659729,15.702262878417969,8.322534561157227
1744304530.592,1.9095406532287598,19.19590950012207,7.432372570037842
1744304530.592,2.5125534534454346,22.488550186157227,7.298369884490967
1744304530.592,-0.1005021408200264,22.794841766357422,8.001884460449219
1744304530.592,-0.13400284945964813,20.248788833618164,7.26486873626709
1744304530.592,0.01914326474070549,17.99466896057129,7.073436260223389
1744304530.592,-0.014357448555529118,15.769264221191406,7.394085884094238
1744304530.592,0.09571632742881775,14.151658058166504,8.188531875610352
1744304530.592,0.3110780417919159,12.75898551940918,9.083478927612305
1744304530.666,1.4596738815307617,12.591482162475586,8.6096830368042
1744304530.666,2.2732627391815186,14.036798477172852,7.284012317657471
1744304530.666,1.7755378484725952,15.089678764343262,6.312491416931152
1744304530.666,-0.765730619430542,14.998747825622559,5.92962646484375
1744304530.666,-3.058136463165283,14.462736129760742,5.508474349975586
1744304530.666,-3.49843168258667,14.233016967773438,5.336184978485107
1744304530.666,-2.866703987121582,12.203831672668457,4.891104221343994
1744304530.666,-1.5410327911376953,10.978662490844727,4.402950763702393
1744304530.74,-0.7513731122016907,9.22705364227295,3.7616515159606934
1744304530.74,0.382865309715271,7.1500091552734375,3.421858549118042
1744304530.74,1.268241286277771,6.427350997924805,3.2687125205993652
1744304530.74,1.5410327911376953,6.527853488922119,2.8619179725646973
1744304530.74,1.5697476863861084,7.212224960327148,2.9815635681152344
1744304530.74,1.1916682720184326,8.021027565002441,3.0533506870269775
1744304530.74,0.5934411883354187,8.638398170471191,3.1251380443573
1744304530.74,0.05742979422211647,9.332341194152832,3.2017109394073486
1744304530.815,-0.35893622040748596,9.609918594360352,3.091637372970581
1744304530.815,-0.5455830693244934,9.246196746826172,3.153852939605713
1744304530.815,-0.4833674430847168,8.590539932250977,3.1873536109924316
1744304530.815,-0.5838695764541626,8.011456489562988,3.0724940299987793
1744304530.815,-0.588655412197113,7.475444793701172,2.9911351203918457
1744304530.815,-0.6460852026939392,7.288797855377197,3.000706672668457
1744304530.815,-0.8231604099273682,7.106936931610107,2.9767775535583496
1744304530.815,-0.8183745741844177,7.322298526763916,2.9193477630615234
1744304530.889,-0.6077986359596252,7.815237998962402,2.9815635681152344
1744304530.889,-0.4642241597175598,8.432607650756836,2.8284173011779785
1744304530.889,-0.363722026348114,8.9590482711792,2.7566301822662354
1744304530.889,-0.0909305065870285,9.485487937927246,2.8140599727630615
1744304530.889,0.08135887235403061,9.796566009521484,2.6226272583007812
1744304530.889,0.29672059416770935,9.71520709991455,2.6800570487976074
1744304530.889,0.5360113978385925,9.648205757141113,2.593912363052368
1744304530.889,0.6077986359596252,9.609918594360352,2.584340810775757
1744304530.963,0.8997334241867065,9.361056327819824,2.7709875106811523
1744304530.963,1.0098072290420532,9.370628356933594,2.809274196624756
1744304530.963,1.0145930051803589,9.174409866333008,2.9767775535583496
1744304530.963,0.9858781099319458,9.145694732666016,3.1012089252471924
1744304530.963,1.0241646766662598,9.179195404052734,3.0533506870269775
1744304530.963,0.9810923337936401,9.408914566040039,3.02942156791687
1744304530.963,0.7896596789360046,9.585989952087402,3.436216115951538
1744304530.963,0.6221560835838318,9.772636413574219,3.479288339614868
1744304531.037,0.5025107264518738,10.07892894744873,3.345285415649414
1744304531.037,0.382865309715271,10.155502319335938,3.259140729904175
1744304531.037,0.46900999546051025,10.150715827941895,3.330928087234497
1744304531.037,0.5647262930870056,10.069356918334961,3.1921393871307373
1744304531.037,0.7418015003204346,9.849209785461426,3.139495372772217
1744304531.037,0.746587336063385,9.710420608520508,2.7231295108795166
1744304531.037,0.6365135312080383,9.605133056640625,2.3498356342315674
1744304531.037,0.8997334241867065,9.940139770507812,2.010042905807495
1744304531.111,1.1916682720184326,10.117215156555176,1.7611804008483887
1744304531.111,1.2921704053878784,10.361291885375977,1.9621846675872803
1744304531.111,0.9763064980506897,10.78244400024414,4.379021644592285
1744304531.111,-0.3445787727832794,11.734821319580078,3.0868513584136963
1744304531.111,-1.742037057876587,11.988469123840332,2.8906328678131104
1744304531.111,-2.5125534534454346,11.323241233825684,4.651813507080078
1744304531.111,-2.5891265869140625,10.361291885375977,4.38380765914917
1744304531.111,-3.0246357917785645,9.490273475646973,4.575240135192871
1744304531.186,-2.818845748901367,9.38498592376709,5.154324054718018
1744304531.186,-2.4407663345336914,9.619490623474121,4.800173759460449
1744304531.186,-1.6702498197555542,9.973641395568848,4.7666730880737305
1744304531.186,-0.3732936680316925,10.232074737548828,4.5991692543029785
1744304531.186,0.9810923337936401,9.37541389465332,4.594383716583252
1744304531.186,1.622391700744629,8.662327766418457,4.369450092315674
1744304531.186,2.0339717864990234,7.915740013122559,4.503453254699707
1744304531.186,1.8808257579803467,7.537660598754883,5.120823383331299
1744304531.26,1.0241646766662598,7.480230808258057,5.154324054718018
1744304531.26,-0.07657305896282196,7.5280890464782715,5.336184978485107
1744304531.26,-1.139024257659912,7.724307537078857,5.321827411651611
1744304531.26,-1.8425391912460327,7.805665969848633,5.326613426208496
1744304531.26,-2.163188934326172,8.035385131835938,5.202182292938232
1744304531.26,-2.670485496520996,8.667113304138184,4.982034683227539
1744304531.26,-2.4216229915618896,9.581204414367676,4.580026149749756
1744304531.26,-2.115330696105957,9.681706428527832,4.5704545974731445
1744304531.334,-1.177310824394226,9.806137084960938,3.9817991256713867
1744304531.334,-0.6939433217048645,9.815709114074707,3.943512439727783
1744304531.334,0.24886244535446167,9.66256332397461,3.6515777111053467
1744304531.334,-0.047858163714408875,9.423272132873535,3.6420061588287354
1744304531.334,-0.20579010248184204,9.700849533081055,3.752079963684082
1744304531.334,-0.6412993669509888,9.36584186553955,3.5797905921936035
1744304531.334,-1.1964540481567383,9.22705364227295,3.8812968730926514
1744304531.334,-1.6750357151031494,8.868117332458496,3.7903664112091064
1744304531.408,-1.9478272199630737,9.590775489807129,3.9722273349761963
1744304531.408,-2.278048515319824,9.231839179992676,4.034442901611328
1744304531.408,-2.234976053237915,8.805901527404785,4.178017616271973
1744304531.408,-1.7085363864898682,8.22203254699707,4.249804973602295
1744304531.408,-1.1294525861740112,8.351249694824219,4.039228916168213
1744304531.408,-0.3924369215965271,8.15981674194336,4.029657363891602
1744304531.408,-0.09571632742881775,8.05452823638916,3.9530842304229736
1744304531.408,-0.06700142472982407,8.231603622436523,3.91479754447937
1744304531.483,0.11007377505302429,8.016242027282715,3.948298454284668
1744304531.483,0.047858163714408875,8.312962532043457,3.723365068435669
1744304531.483,0.0909305065870285,9.03562068939209,3.6420061588287354
1744304531.483,-0.1722893863916397,9.083478927612305,3.8525819778442383
1744304531.483,-0.2536482512950897,9.337127685546875,3.8047239780426025
1744304531.483,-0.014357448555529118,9.447200775146484,3.6659352779388428
1744304531.483,0.07657305896282196,9.56684684753418,3.6085054874420166
1744304531.483,0.1722893863916397,9.423272132873535,3.555861473083496
1744304531.557,0.1005021408200264,9.030835151672363,3.378786325454712
1744304531.557,-0.1005021408200264,8.868117332458496,3.3692145347595215
1744304531.557,-0.2632198929786682,8.848974227905273,3.2160685062408447
1744304531.557,-0.22014755010604858,9.136122703552246,3.1873536109924316
1744304531.557,-0.3924369215965271,9.22705364227295,3.239997625350952
1744304531.557,-0.5120823383331299,9.408914566040039,3.3404996395111084
1744304531.557,-0.6748000979423523,9.7391357421875,3.239997625350952
1744304531.557,-0.746587336063385,9.925783157348633,3.2017109394073486
1744304531.631,-0.8279461860656738,9.806137084960938,3.182567834854126
1744304531.631,-0.6269419193267822,9.734350204467773,2.9672060012817383
1744304531.631,-0.7322298884391785,9.552489280700684,2.928919553756714
1744304531.631,-0.8518753051757812,9.317984580993652,2.9193477630615234
1744304531.631,-0.9284483194351196,9.179195404052734,2.837989091873169
1744304531.631,-1.0050214529037476,9.006906509399414,2.804488182067871
1744304531.631,-0.9475916028022766,8.872902870178223,2.718343496322632
1744304531.631,-0.8518753051757812,8.915975570678711,2.713557720184326
1744304531.705,-0.7944455146789551,9.01169204711914,2.7566301822662354
1744304531.705,-0.7561589479446411,9.174409866333008,2.670485496520996
1744304531.705,-0.6748000979423523,9.351485252380371,2.684842824935913
1744304531.705,-0.8135887384414673,9.504631042480469,2.7662017345428467
1744304531.705,-0.8279461860656738,9.542917251586914,2.8619179725646973
1744304531.705,-1.0480937957763672,9.490273475646973,3.120352268218994
1744304531.705,-1.0289504528045654,9.552489280700684,3.302213191986084
1744304531.705,-1.0241646766662598,9.327555656433105,3.2782840728759766
1744304531.779,-0.9188767075538635,9.188767433166504,3.120352268218994
1744304531.779,-1.0050214529037476,9.241411209106445,3.062922477722168
1744304531.779,-1.1294525861740112,9.47113037109375,3.182567834854126
1744304531.779,-1.2873845100402832,9.614705085754395,3.2782840728759766
1744304531.779,-1.4596738815307617,9.863567352294922,3.479288339614868
1744304531.779,-1.3208853006362915,9.873138427734375,3.5223608016967773
1744304531.779,-1.1964540481567383,9.786993980407715,3.49843168258667
1744304531.779,-0.9380199909210205,9.81092357635498,3.512789011001587
1744304531.854,-0.7418015003204346,9.681706428527832,3.378786325454712
1744304531.854,-0.679585874080658,9.629061698913574,3.2639267444610596
1744304531.854,-0.7322298884391785,9.562060356140137,3.16821026802063
1744304531.854,-1.1198810338974,9.538131713867188,3.058136463165283
1744304531.854,-1.3831008672714233,9.56684684753418,2.9337053298950195
1744304531.854,-1.4070299863815308,9.657776832580566,2.7518444061279297
1744304531.854,-1.5075321197509766,9.734350204467773,2.5269110202789307
1744304531.854,-1.5553902387619019,9.815709114074707,2.402479648590088
1744304531.928,-1.5410327911376953,9.782208442687988,2.220618724822998
1744304531.928,-1.584105134010315,9.801351547241211,2.2254045009613037
1744304531.928,-1.5123178958892822,9.696063995361328,3.043779134750366
1744304531.928,-0.9906639456748962,10.01671314239502,5.867410659790039
1744304531.928,0.41636601090431213,10.854230880737305,2.3306925296783447
1744304531.928,1.3304568529129028,10.983448028564453,3.6132912635803223
1744304531.928,1.1294525861740112,10.050213813781738,4.379021644592285
1744304531.928,0.6987291574478149,9.959283828735352,4.5704545974731445
1744304532.002,0.6125844717025757,10.34693431854248,5.838695526123047
1744304532.002,0.6317277550697327,10.643654823303223,5.211753845214844
1744304532.002,0.7226582169532776,10.351720809936523,4.819316864013672
1744304532.002,0.5360113978385925,9.605133056640625,4.422094345092773
1744304532.002,0.11007377505302429,9.207910537719727,3.943512439727783
1744304532.002,-0.9667348861694336,8.810688018798828,4.158874034881592
1744304532.002,-2.3354783058166504,8.241175651550293,4.240232944488525
1744304532.002,-2.852346420288086,8.016242027282715,4.249804973602295
1744304532.076,-2.340264081954956,7.776951313018799,4.230661392211914
1744304532.076,-1.4309589862823486,7.3175129890441895,4.182803153991699
1744304532.076,-0.7800880670547485,7.236154079437256,4.20194673538208
1744304532.076,-0.5072965025901794,7.22179651260376,4.436451435089111
1744304532.076,0.13400284945964813,7.212224960327148,4.613526821136475
1744304532.076,0.4833674430847168,7.078222274780273,4.852817535400391
1744304532.076,0.521653950214386,7.212224960327148,5.010749340057373
1744304532.076,0.4546525478363037,7.126080513000488,5.1399664878845215
1744304532.151,0.22014755010604858,7.102151393890381,5.221325397491455
1744304532.151,0.09571632742881775,7.049507141113281,5.398400783538818
1744304532.151,0.06700142472982407,6.925076007843018,5.40797233581543
1744304532.151,-0.16271774470806122,7.552018165588379,5.235682964324951
1744304532.151,-0.6365135312080383,7.748236179351807,5.374471664428711
1744304532.151,-1.2586696147918701,8.667113304138184,4.886318206787109
1744304532.151,-1.3304568529129028,9.088264465332031,4.891104221343994
1744304532.151,-1.4022440910339355,9.729564666748047,4.8384599685668945
1744304532.225,-1.3783150911331177,10.509652137756348,4.929390907287598
1744304532.225,-0.9380199909210205,10.610154151916504,4.709243297576904
1744304532.225,-0.4833674430847168,10.643654823303223,4.781030178070068
1744304532.225,-0.2727915346622467,10.614940643310547,4.848031997680664
1744304532.225,0.20579010248184204,10.011927604675293,4.9006757736206055
1744304532.225,0.23450499773025513,10.01671314239502,4.852817535400391
1744304532.225,0.22493335604667664,9.614705085754395,4.852817535400391
1744304532.225,0.0909305065870285,9.337127685546875,4.824102878570557
1744304532.299,0.03350071236491203,9.049978256225586,4.613526821136475
1744304532.299,-0.15314611792564392,8.734114646911621,4.441237449645996
1744304532.299,-0.2632198929786682,8.423036575317383,4.240232944488525
1744304532.299,-0.36850783228874207,8.164602279663086,4.000942230224609
1744304532.299,-0.727444052696228,8.202888488769531,3.7999379634857178
1744304532.299,-0.7035149931907654,8.169387817382812,3.484074115753174
1744304532.299,-0.569512128829956,8.178959846496582,3.3548572063446045
1744304532.299,-0.6700142621994019,8.0736722946167,3.2352118492126465
1744304532.373,-1.0911661386489868,8.906403541564941,3.259140729904175
1744304532.373,-1.3017419576644897,9.241411209106445,3.3069989681243896
1744304532.373,-1.1055235862731934,9.231839179992676,3.196925163269043
1744304532.373,-1.3974583148956299,9.270126342773438,3.3835721015930176
1744304532.373,-0.8231604099273682,9.27969741821289,3.484074115753174
1744304532.373,-0.8183745741844177,9.136122703552246,3.6132912635803223
1744304532.373,-0.8231604099273682,8.963833808898926,3.618077039718628
1744304532.373,-0.9380199909210205,8.954261779785156,3.5175747871398926
1744304532.447,-0.9380199909210205,9.351485252380371,3.49843168258667
1744304532.447,-1.1438100337982178,9.442415237426758,3.4745025634765625
1744304532.447,-1.1581674814224243,9.413700103759766,3.479288339614868
1744304532.447,-1.2586696147918701,9.308412551879883,3.3692145347595215
1744304532.447,-1.0145930051803589,9.155266761779785,3.3835721015930176
1744304532.447,-0.8901618123054504,9.088264465332031,3.3357138633728027
1744304532.447,-0.6748000979423523,8.624040603637695,3.4457876682281494
1744304532.447,-0.4546525478363037,9.169623374938965,3.2160685062408447
1744304532.522,-0.2919347882270813,9.049978256225586,3.2352118492126465
1744304532.522,-0.29672059416770935,9.327555656433105,3.239997625350952
1744304532.522,-0.5168681740760803,9.327555656433105,3.182567834854126
1744304532.522,-0.540797233581543,9.351485252380371,3.0868513584136963
1744304532.522,-0.8710185289382935,9.250982284545898,3.1012089252471924
1744304532.522,-1.110309362411499,9.351485252380371,3.0054924488067627
1744304532.522,-1.2730270624160767,9.274911880493164,3.0868513584136963
1744304532.522,-1.4357448816299438,9.19355297088623,2.9767775535583496
1744304532.596,-1.4788172245025635,9.169623374938965,3.0246357917785645
1744304532.596,-1.359171748161316,9.231839179992676,3.0724940299987793
1744304532.596,-1.3735291957855225,9.19355297088623,3.0246357917785645
1744304532.596,-1.2778129577636719,9.270126342773438,2.9528486728668213
1744304532.596,-1.268241286277771,9.10740852355957,2.9049904346466064
1744304532.596,-1.2921704053878784,9.136122703552246,2.9815635681152344
1744304532.596,-1.1246668100357056,8.992548942565918,3.077279806137085
1744304532.596,-0.9475916028022766,9.241411209106445,3.225640058517456
1744304532.67,-1.139024257659912,9.36584186553955,3.153852939605713
1744304532.67,-0.9667348861694336,9.203125,3.259140729904175
1744304532.67,-0.8375178575515747,9.093050956726074,3.1155662536621094
1744304532.67,-0.8423036336898804,9.10740852355957,3.1299238204956055
1744304532.67,-0.8088029623031616,9.160052299499512,3.02942156791687
1744304532.67,-0.8423036336898804,9.250982284545898,3.0533506870269775
1744304532.67,-0.8758043646812439,9.456772804260254,3.2064969539642334
1744304532.67,-0.7944455146789551,9.533346176147461,3.211282730102539
1744304532.744,-0.8805902004241943,9.581204414367676,3.2160685062408447
1744304532.744,-0.8758043646812439,9.676919937133789,3.139495372772217
1744304532.744,-1.0480937957763672,9.753493309020996,3.043779134750366
1744304532.744,-1.0385221242904663,9.801351547241211,2.938491106033325
1744304532.744,-1.1007376909255981,9.964069366455078,2.866703987121582
1744304532.744,-1.072022795677185,10.19857406616211,2.7853450775146484
1744304532.744,-0.9667348861694336,10.361291885375977,2.703986167907715
1744304532.744,-0.765730619430542,10.576653480529785,2.641770601272583
1744304532.819,-0.746587336063385,10.859017372131348,2.550840139389038
1744304532.819,-0.6604426503181458,10.930804252624512,2.6226272583007812
1744304532.819,-0.6652284264564514,10.839873313903809,2.5604116916656494
1744304532.819,-0.6173703074455261,10.734585762023926,2.5173392295837402
1744304532.819,-0.5312256217002869,10.533581733703613,2.368978977203369
1744304532.819,-0.5072965025901794,10.256004333496094,2.2301902770996094
1744304532.819,-0.5072965025901794,10.169858932495117,2.129688262939453
1744304532.819,-0.5360113978385925,9.978426933288574,1.9717562198638916
1744304532.893,-0.44986671209335327,9.911425590515137,1.9095406532287598
1744304532.893,-0.48815324902534485,9.763065338134766,1.8281817436218262
1744304532.893,-0.2727915346622467,9.624276161193848,3.2304258346557617
1744304532.893,-0.765730619430542,9.676919937133789,5.04425048828125
1744304532.893,-1.7755378484725952,10.691513061523438,2.2445478439331055
1744304532.893,-2.550840139389038,10.610154151916504,3.0964231491088867
1744304532.893,-2.3306925296783447,9.987998008728027,3.196925163269043
1744304532.893,-1.837753415107727,9.71520709991455,3.704221725463867
1744304532.967,-1.5649619102478027,10.28471851348877,3.8765110969543457
1744304532.967,-1.3256710767745972,10.457008361816406,3.977013349533081
1744304532.967,-1.4118157625198364,10.241646766662598,3.632434368133545
1744304532.967,-1.0576653480529785,9.968854904174805,3.603719472885132
1744304532.967,-0.45943835377693176,9.528559684753418,3.555861473083496
1744304532.967,0.12921704351902008,9.317984580993652,3.5223608016967773
1744304532.967,0.569512128829956,8.686256408691406,3.814295530319214
1744304532.967,0.904519259929657,7.920525550842285,4.111016273498535
1744304533.041,0.8901618123054504,7.4658732414245605,4.3598785400390625
1744304533.041,0.41636601090431213,7.303155422210693,4.618312835693359
1744304533.041,-0.1005021408200264,6.743215084075928,4.709243297576904
1744304533.041,-0.8040171265602112,6.322062969207764,5.17346715927124
1744304533.041,-1.239526391029358,6.441708564758301,5.230896949768066
1744304533.041,-1.1629533767700195,6.1976318359375,5.479759693145752
1744304533.041,-0.9810923337936401,5.943983554840088,5.221325397491455
1744304533.041,-0.765730619430542,5.991841793060303,4.9006757736206055
1744304533.115,-0.7322298884391785,6.85807466506958,4.924604892730713
1744304533.115,-0.4546525478363037,7.719521522521973,4.685314178466797
1744304533.115,-0.44029510021209717,8.834616661071777,4.642241477966309
1744304533.115,-0.5742979645729065,9.887495994567871,4.532167911529541
1744304533.115,-0.7322298884391785,10.208146095275879,4.589597702026367
1744304533.115,-0.521653950214386,10.863802909851074,4.757101058959961
1744304533.115,-0.569512128829956,10.830302238464355,4.632669925689697
1744304533.115,-0.6652284264564514,10.643654823303223,4.556097030639648
1744304533.19,-0.7848738431930542,10.78244400024414,4.685314178466797
1744304533.19,-1.2586696147918701,10.179430961608887,4.637455940246582
1744304533.19,-1.3256710767745972,10.050213813781738,4.618312835693359
1744304533.19,-1.4022440910339355,9.518988609313965,4.460380554199219
1744304533.19,-1.387886643409729,8.686256408691406,4.455595016479492
1744304533.19,-0.9619490504264832,8.542681694030762,4.144516944885254
1744304533.19,-0.7561589479446411,7.954026699066162,3.9674415588378906
1744304533.19,-0.5168681740760803,7.437158584594727,3.9578700065612793
1744304533.264,-0.6221560835838318,7.370156764984131,3.512789011001587
1744304533.264,-0.39722275733947754,7.719521522521973,3.632434368133545
1744304533.264,-0.46900999546051025,7.910953998565674,3.4027152061462402
1744304533.264,-0.48815324902534485,8.035385131835938,3.436216115951538
1744304533.264,-0.6221560835838318,8.274676322937012,3.0964231491088867
1744304533.264,-0.765730619430542,8.561824798583984,3.1921393871307373
1744304533.264,-0.7561589479446411,8.714971542358398,2.938491106033325
1744304533.264,-0.6221560835838318,8.77718734741211,2.943276882171631
1744304533.338,-0.8183745741844177,8.9590482711792,2.881061315536499
1744304533.338,-0.8040171265602112,9.231839179992676,2.8140599727630615
1744304533.338,-0.8805902004241943,9.518988609313965,2.5891265869140625
1744304533.338,-0.8949476480484009,9.801351547241211,2.565197467803955
1744304533.338,-0.8949476480484009,10.126787185668945,2.5604116916656494
1744304533.338,-1.0576653480529785,10.040642738342285,2.459909439086914
1744304533.338,-1.3783150911331177,9.719992637634277,2.5556259155273438
1744304533.338,-1.454888105392456,9.849209785461426,2.593912363052368
1744304533.412,-1.148595929145813,9.724778175354004,2.593912363052368
1744304533.412,-1.1294525861740112,9.361056327819824,2.6465563774108887
1744304533.412,-1.1342384815216064,9.408914566040039,2.641770601272583
1744304533.412,-1.1055235862731934,9.39934253692627,2.5891265869140625
1744304533.412,-1.1055235862731934,9.083478927612305,2.61305570602417
1744304533.412,-1.1007376909255981,8.858545303344727,2.584340810775757
1744304533.412,-1.1581674814224243,8.973404884338379,2.6178414821624756
1744304533.412,-1.4883887767791748,8.944690704345703,2.5412683486938477
1744304533.486,-1.4070299863815308,8.423036575317383,3.2064969539642334
1744304533.486,-1.8521108627319336,9.164837837219238,3.1012089252471924
1744304533.486,-2.488624334335327,9.188767433166504,3.737722396850586
1744304533.486,-2.5029819011688232,9.073907852172852,3.943512439727783
1744304533.486,-2.3641932010650635,8.944690704345703,3.6850783824920654
1744304533.486,-2.2014753818511963,8.954261779785156,3.469716787338257
1744304533.486,-2.1679747104644775,9.140909194946289,3.302213191986084
1744304533.486,-2.2014753818511963,9.820494651794434,2.9049904346466064
1744304533.561,-2.14404559135437,10.485723495483398,2.684842824935913
1744304533.561,-1.957398772239685,10.90208911895752,2.191903829574585
1744304533.561,-1.9191123247146606,11.05044937133789,1.7946810722351074
1744304533.561,-1.9813278913497925,11.117450714111328,1.3113136291503906
1744304533.561,-2.0961875915527344,11.06002140045166,0.7418015003204346
1744304533.561,-2.28283429145813,10.859017372131348,0.4450809061527252
1744304533.561,-2.4264087677001953,10.490509033203125,2.1105449199676514
1744304533.561,-1.742037057876587,11.347169876098633,7.1212944984436035
1744304533.635,1.2443121671676636,11.88318157196045,1.689393162727356
1744304533.635,4.374236106872559,11.993255615234375,3.302213191986084
1744304533.635,4.278519630432129,10.911661148071289,3.1442811489105225
1744304533.635,3.814295530319214,10.648441314697266,1.8138242959976196
1744304533.635,2.479052782058716,10.954732894897461,2.038757801055908
1744304533.635,-0.45943835377693176,10.739371299743652,3.962655782699585
1744304533.635,-3.1873536109924316,9.849209785461426,4.867175102233887
1744304533.635,-3.153852939605713,9.370628356933594,5.2452545166015625
1744304533.709,-2.053115129470825,9.116979598999023,5.580261707305908
1744304533.709,-0.8901618123054504,7.638162612915039,5.49411678314209
1744304533.709,-0.6077986359596252,8.2124605178833,5.924840450286865
1744304533.709,0.11964540183544159,7.116508483886719,6.575711250305176
1744304533.709,0.03828652948141098,7.939669132232666,6.508709907531738
1744304533.709,0.03350071236491203,8.68147087097168,6.121058940887451
1744304533.709,-0.07178724557161331,8.738900184631348,5.853053092956543
1744304533.709,0.05742979422211647,8.298604965209961,6.030128479003906
1744304533.783,0.20579010248184204,8.700613975524902,5.608976364135742
1744304533.783,0.4115802049636841,9.270126342773438,5.532403469085693
1744304533.783,0.6173703074455261,10.035856246948242,5.120823383331299
1744304533.783,0.6460852026939392,9.341913223266602,5.230896949768066
1744304533.783,0.23450499773025513,9.82528018951416,4.938962459564209
1744304533.783,-0.14836029708385468,10.457008361816406,4.881532669067383
1744304533.783,-0.22493335604667664,10.605368614196777,4.709243297576904
1744304533.783,0.35893622040748596,10.418722152709961,4.685314178466797
1744304533.858,0.746587336063385,10.19857406616211,4.594383716583252
1744304533.858,1.3017419576644897,9.490273475646973,4.4938812255859375
1744304533.858,1.2730270624160767,8.638398170471191,4.4651665687561035
1744304533.858,0.7609447836875916,8.22203254699707,4.307234764099121
1744304533.858,0.2823631465435028,8.092815399169922,4.154088497161865
1744304533.858,0.01914326474070549,7.159581184387207,4.077515602111816
1744304533.858,0.03828652948141098,7.068650722503662,3.5941479206085205
1744304533.858,-0.5599405169487,6.896361351013184,3.890868663787842
1744304533.932,-0.952377438545227,7.145223617553711,3.7185792922973633
1744304533.932,-1.0959519147872925,7.56158971786499,3.5462896823883057
1744304533.932,-0.7800880670547485,7.992312908172607,3.584576368331909
1744304533.932,-0.5551546812057495,7.547232151031494,3.709007501602173
1744304533.932,-0.13400284945964813,8.164602279663086,3.5462896823883057
1744304533.932,0.18664683401584625,8.446965217590332,3.4601449966430664
1744304533.932,0.7705163955688477,8.628826141357422,3.421858549118042
1744304533.932,0.521653950214386,8.566611289978027,3.421858549118042
1744304534.006,0.13400284945964813,8.001884460449219,3.5462896823883057
1744304534.006,-0.4259376525878906,7.719521522521973,3.4457876682281494
1744304534.006,-0.708300769329071,7.269654750823975,3.512789011001587
1744304534.006,-1.0337363481521606,7.006434917449951,3.393143653869629
1744304534.006,-1.1294525861740112,6.733643531799316,3.2352118492126465
1744304534.006,-1.0289504528045654,6.71928596496582,3.1729960441589355
1744304534.006,-0.904519259929657,6.71928596496582,3.16821026802063
1744304534.006,-0.8088029623031616,7.006434917449951,3.0102784633636475
1744304534.08,-0.35893622040748596,7.676449298858643,3.139495372772217
1744304534.08,-0.5312256217002869,7.64773416519165,3.1777820587158203
1744304534.08,-0.47858160734176636,8.51396656036377,2.9624202251434326
1744304534.08,-0.05264397710561752,8.915975570678711,3.1107804775238037
1744304534.08,0.09571632742881775,9.657776832580566,3.196925163269043
1744304534.08,0.5360113978385925,10.117215156555176,3.2687125205993652
1744304534.08,0.43550926446914673,10.571867942810059,3.3357138633728027
1744304534.08,0.31586387753486633,10.52879524230957,3.244783401489258
1744304534.154,0.27757734060287476,10.787229537963867,3.2830698490142822
1744304534.154,0.15793193876743317,10.777658462524414,3.225640058517456
1744304534.154,-0.11007377505302429,10.969090461730957,3.5175747871398926
1744304534.154,-0.6843717098236084,11.093522071838379,3.598933696746826
1744304534.154,-1.1150951385498047,11.150951385498047,3.4266443252563477
1744304534.154,-1.2730270624160767,11.256239891052246,3.2064969539642334
1744304534.154,-1.3400285243988037,11.438100814819336,3.1873536109924316
1744304534.154,-1.4357448816299438,11.002591133117676,3.3069989681243896
1744304534.229,-0.8088029623031616,10.99780559539795,2.804488182067871
1744304534.229,-0.569512128829956,9.815709114074707,2.7997024059295654
1744304534.229,-0.521653950214386,10.117215156555176,2.5556259155273438
1744304534.229,-0.36850783228874207,10.734585762023926,1.8951832056045532
1744304534.229,-0.540797233581543,10.466580390930176,1.8425391912460327
1744304534.229,-0.5599405169487,10.849445343017578,1.3735291957855225
1744304534.229,-0.6365135312080383,11.222739219665527,1.0480937957763672
1744304534.229,-1.3304568529129028,10.748943328857422,2.579555034637451
1744304534.303,-2.47426700592041,11.562531471252441,5.541975021362305
1744304534.303,-3.302213191986084,11.59603214263916,3.2017109394073486
1744304534.303,-5.077751159667969,9.255768775939941,4.187589168548584
1744304534.303,-4.656599044799805,9.676919937133789,4.321591854095459
1744304534.303,-5.532403469085693,11.696535110473633,5.168681621551514
1744304534.303,-4.709243297576904,11.284955024719238,6.226346969604492
1744304534.303,-2.1201164722442627,8.6096830368042,6.523067474365234
1744304534.303,0.7848738431930542,6.106701374053955,6.4321370124816895
1744304534.377,1.5506044626235962,5.278755187988281,5.9200544357299805
1744304534.377,3.3883578777313232,3.239997625350952,6.082772254943848
1744304534.377,4.680528163909912,1.7276796102523804,6.728857517242432
1744304534.377,5.49411678314209,4.407736778259277,6.465637683868408
1744304534.377,4.335949420928955,7.83916711807251,6.255061626434326
1744304534.377,1.7851094007492065,8.164602279663086,5.230896949768066
1744304534.377,-1.9908995628356934,8.57618236541748,5.656834602355957
1744304534.377,-4.029657363891602,10.131572723388672,5.446259021759033
1744304534.451,-5.0346784591674805,12.476622581481934,4.436451435089111
1744304534.451,-3.6707210540771484,10.72022819519043,4.5704545974731445
1744304534.451,-1.966970443725586,10.069356918334961,4.699671268463135
1744304534.451,0.028714897111058235,10.083714485168457,4.556097030639648
1744304534.451,0.3350071310997009,10.969090461730957,4.441237449645996
1744304534.451,0.9093050956726074,7.810451984405518,4.814530849456787
1744304534.451,-0.4929390549659729,8.379963874816895,4.603955268859863
1744304534.451,-1.928683876991272,10.524009704589844,4.087087154388428
1744304534.526,-2.5173392295837402,9.442415237426758,4.718814849853516
1744304534.526,-2.4551236629486084,9.160052299499512,4.264162063598633
1744304534.526,-3.0677082538604736,7.6908063888549805,4.924604892730713
1744304534.526,-2.584340810775757,7.547232151031494,4.417308330535889
1744304534.526,-2.038757801055908,7.92531156539917,4.197160720825195
1744304534.526,-1.6989647150039673,9.337127685546875,3.7472941875457764
1744304534.526,-1.0576653480529785,11.634319305419922,3.603719472885132
1744304534.526,-0.9810923337936401,10.562295913696289,3.675506830215454
1744304534.6,-0.4546525478363037,6.94421911239624,3.6994359493255615
