                                                                                AngularVelocity                                                                 10.04.2519.43.20104 
Timestamp,GyroX,GyroY,GyroZ
1744304518.939,6.579999923706055,-23.239999771118164,4.760000228881836
1744304518.939,7.139999866485596,-30.799999237060547,11.6899995803833
1744304518.939,13.440000534057617,-35.97999954223633,21.770000457763672
1744304518.939,19.530000686645508,-36.61000061035156,31.56999969482422
1744304518.939,18.059999465942383,-31.989999771118164,38.63999938964844
1744304518.939,10.220000267028809,-22.260000228881836,39.27000045776367
1744304518.939,5.740000247955322,-8.680000305175781,33.880001068115234
1744304518.939,6.650000095367432,-1.9600000381469727,26.739999771118164
1744304519.013,3.8499999046325684,3.9200000762939453,19.809999465942383
1744304519.013,-1.9600000381469727,7.490000247955322,11.899999618530273
1744304519.013,-6.579999923706055,7.28000020980835,10.640000343322754
1744304519.013,-9.449999809265137,5.25,17.639999389648438
1744304519.013,-8.609999656677246,-0.2800000011920929,28.559999465942383
1744304519.013,-5.389999866485596,-6.090000152587891,39.83000183105469
1744304519.013,-3.7799999713897705,-9.380000114440918,48.02000045776367
1744304519.013,-1.399999976158142,-9.380000114440918,51.099998474121094
1744304519.087,1.6800000667572021,-8.050000190734863,47.7400016784668
1744304519.087,4.96999979019165,-5.039999961853027,39.20000076293945
1744304519.087,6.720000267028809,-1.4700000286102295,25.969999313354492
1744304519.087,7.490000247955322,1.2599999904632568,9.730000495910645
1744304519.087,8.75,2.870000123977661,-8.050000190734863
1744304519.087,11.619999885559082,2.450000047683716,-22.049999237060547
1744304519.087,12.600000381469727,0.14000000059604645,-29.399999618530273
1744304519.087,13.720000267028809,-3.569999933242798,-30.309999465942383
1744304519.161,14.420000076293945,-7.070000171661377,-27.719999313354492
1744304519.161,16.520000457763672,-10.850000381469727,-24.219999313354492
1744304519.161,13.579999923706055,-14.420000076293945,-21.559999465942383
1744304519.161,10.5,-19.739999771118164,-20.020000457763672
1744304519.161,6.230000019073486,-21.979999542236328,-15.75
1744304519.161,2.0999999046325684,-21.559999465942383,-10.149999618530273
1744304519.161,-5.599999904632568,-20.579999923706055,-5.389999866485596
1744304519.161,-10.640000343322754,-17.639999389648438,-0.9100000262260437
1744304519.236,-16.100000381469727,-13.930000305175781,3.7799999713897705
1744304519.236,-16.65999984741211,-11.130000114440918,6.860000133514404
1744304519.236,-18.549999237060547,-10.850000381469727,7.28000020980835
1744304519.236,-15.470000267028809,-12.25,5.599999904632568
1744304519.236,-12.109999656677246,-13.369999885559082,3.2200000286102295
1744304519.236,-5.460000038146973,-13.579999923706055,1.75
1744304519.236,1.0499999523162842,-14.489999771118164,0.2800000011920929
1744304519.236,6.019999980926514,-12.460000038146973,0.699999988079071
1744304519.31,8.960000038146973,-10.430000305175781,1.1200000047683716
1744304519.31,10.920000076293945,-8.1899995803833,1.8899999856948853
1744304519.31,11.34000015258789,-5.949999809265137,3.3600001335144043
1744304519.31,11.40999984741211,-3.1500000953674316,4.760000228881836
1744304519.31,12.25,-0.49000000953674316,5.740000247955322
1744304519.31,13.440000534057617,-0.2800000011920929,5.460000038146973
1744304519.31,15.819999694824219,-2.1700000762939453,4.130000114440918
1744304519.31,16.8700008392334,-8.890000343322754,2.870000123977661
1744304519.384,16.239999771118164,-13.510000228881836,1.2599999904632568
1744304519.384,15.609999656677246,-18.690000534057617,1.399999976158142
1744304519.384,16.59000015258789,-21.489999771118164,2.309999942779541
1744304519.384,17.920000076293945,-22.81999969482422,2.0999999046325684
1744304519.384,18.270000457763672,-23.239999771118164,0.699999988079071
1744304519.384,22.399999618530273,-25.270000457763672,-1.3300000429153442
1744304519.384,23.3799991607666,-25.1299991607666,-3.009999990463257
1744304519.384,23.520000457763672,-23.8700008392334,-3.569999933242798
1744304519.458,22.260000228881836,-23.59000015258789,-2.380000114440918
1744304519.458,14.279999732971191,-24.360000610351562,0.7699999809265137
1744304519.458,5.039999961853027,-22.75,5.460000038146973
1744304519.458,-6.510000228881836,-19.110000610351562,8.539999961853027
1744304519.458,-23.799999237060547,-9.59000015258789,1.2599999904632568
1744304519.458,-37.029998779296875,-10.430000305175781,-5.53000020980835
1744304519.458,-40.040000915527344,-7.559999942779541,-16.59000015258789
1744304519.458,-31.780000686645508,-1.75,-33.38999938964844
1744304519.532,-24.149999618530273,-3.2200000286102295,-49.90999984741211
1744304519.532,-15.890000343322754,-10.710000038146973,-59.43000030517578
1744304519.532,-7.630000114440918,-14.5600004196167,-62.93000030517578
1744304519.532,-7.980000019073486,-20.93000030517578,-60.83000183105469
1744304519.532,-12.390000343322754,-24.920000076293945,-52.43000030517578
1744304519.532,-16.309999465942383,-25.1299991607666,-40.040000915527344
1744304519.532,-20.09000015258789,-24.010000228881836,-26.040000915527344
1744304519.532,-23.309999465942383,-21.21000099182129,-14.630000114440918
1744304519.607,-25.40999984741211,-16.239999771118164,-5.179999828338623
1744304519.607,-20.860000610351562,-11.6899995803833,3.2200000286102295
1744304519.607,-9.800000190734863,-11.619999885559082,10.989999771118164
1744304519.607,3.8499999046325684,-16.239999771118164,16.799999237060547
1744304519.607,13.720000267028809,-24.010000228881836,18.899999618530273
1744304519.607,19.670000076293945,-32.619998931884766,16.729999542236328
1744304519.607,22.889999389648438,-36.959999084472656,13.930000305175781
1744304519.607,21.350000381469727,-35.90999984741211,16.8700008392334
1744304519.681,22.68000030517578,-31.290000915527344,23.940000534057617
1744304519.681,21.84000015258789,-27.719999313354492,30.799999237060547
1744304519.681,12.109999656677246,-24.5,33.529998779296875
1744304519.681,6.860000133514404,-20.440000534057617,28.350000381469727
1744304519.681,1.3300000429153442,-17.290000915527344,19.8799991607666
1744304519.681,-1.4700000286102295,-13.720000267028809,13.09000015258789
1744304519.681,-1.190000057220459,-10.710000038146973,8.050000190734863
1744304519.681,-1.5399999618530273,-8.260000228881836,6.720000267028809
1744304519.755,1.8899999856948853,-5.53000020980835,8.890000343322754
1744304519.755,7.630000114440918,-4.269999980926514,11.130000114440918
1744304519.755,13.440000534057617,-3.3600001335144043,13.859999656677246
1744304519.755,18.6200008392334,-3.7799999713897705,15.75
1744304519.755,19.950000762939453,-3.430000066757202,16.8700008392334
1744304519.755,18.6200008392334,-2.0299999713897705,16.799999237060547
1744304519.755,15.75,0.5600000023841858,17.71000099182129
1744304519.755,12.109999656677246,2.0299999713897705,17.639999389648438
1744304519.829,9.449999809265137,3.990000009536743,17.360000610351562
1744304519.829,7.699999809265137,5.949999809265137,17.219999313354492
1744304519.829,6.929999828338623,8.819999694824219,17.56999969482422
1744304519.829,5.740000247955322,11.6899995803833,17.989999771118164
1744304519.829,5.039999961853027,14.84000015258789,18.270000457763672
1744304519.829,4.690000057220459,17.290000915527344,18.34000015258789
1744304519.829,6.230000019073486,18.829999923706055,16.940000534057617
1744304519.829,3.430000066757202,19.950000762939453,15.119999885559082
1744304519.903,-0.49000000953674316,19.670000076293945,13.789999961853027
1744304519.903,1.190000057220459,20.93000030517578,11.899999618530273
1744304519.903,1.0499999523162842,22.190000534057617,10.640000343322754
1744304519.903,2.1700000762939453,21.139999389648438,8.329999923706055
1744304519.903,0.49000000953674316,21.84000015258789,7.210000038146973
1744304519.903,0.21000000834465027,21.700000762939453,7
1744304519.903,-0.49000000953674316,24.149999618530273,7.980000019073486
1744304519.903,1.3300000429153442,22.469999313354492,6.789999961853027
1744304519.978,0.07000000029802322,22.399999618530273,5.949999809265137
1744304519.978,-2.940000057220459,23.450000762939453,5.179999828338623
1744304519.978,-6.159999847412109,23.940000534057617,4.760000228881836
1744304519.978,-9.800000190734863,24.639999389648438,4.480000019073486
1744304519.978,-13.930000305175781,24.920000076293945,4.480000019073486
1744304519.978,-18.1299991607666,24.989999771118164,4.550000190734863
1744304519.978,-21.21000099182129,25.270000457763672,3.990000009536743
1744304519.978,-22.540000915527344,25.479999542236328,3.0799999237060547
1744304520.052,-23.100000381469727,26.739999771118164,2.450000047683716
1744304520.052,-22.260000228881836,28.21000099182129,2.6600000858306885
1744304520.052,-20.719999313354492,29.610000610351562,4.199999809265137
1744304520.052,-20.510000228881836,30.65999984741211,6.720000267028809
1744304520.052,-20.790000915527344,30.450000762939453,10.010000228881836
1744304520.052,-18.690000534057617,27.440000534057617,12.039999961853027
1744304520.052,-16.729999542236328,20.3700008392334,12.390000343322754
1744304520.052,-18.760000228881836,10.010000228881836,13.020000457763672
1744304520.126,-21.489999771118164,6.440000057220459,14.279999732971191
1744304520.126,-24.639999389648438,8.260000228881836,18.479999542236328
1744304520.126,-27.93000030517578,13.09000015258789,24.989999771118164
1744304520.126,-31.149999618530273,17.639999389648438,32.619998931884766
1744304520.126,-35.42000198364258,24.079999923706055,38.5
1744304520.126,-39.47999954223633,28.350000381469727,38.92000198364258
1744304520.126,-41.720001220703125,29.68000030517578,33.040000915527344
1744304520.126,-40.7400016784668,31.290000915527344,22.68000030517578
1744304520.2,-37.099998474121094,32.20000076293945,9.730000495910645
1744304520.2,-34.86000061035156,33.38999938964844,0.5600000023841858
1744304520.2,-33.529998779296875,32.54999923706055,-2.380000114440918
1744304520.2,-31.850000381469727,31.56999969482422,-1.0499999523162842
1744304520.2,-30.239999771118164,31.71000099182129,0.9800000190734863
1744304520.2,-29.329999923706055,32.54999923706055,1.9600000381469727
1744304520.2,-27.649999618530273,33.7400016784668,2.870000123977661
1744304520.2,-24.219999313354492,36.2599983215332,4.550000190734863
1744304520.275,-21.559999465942383,37.099998474121094,5.880000114440918
1744304520.275,-17.43000030517578,38.08000183105469,6.860000133514404
1744304520.275,-15.680000305175781,37.72999954223633,7.699999809265137
1744304520.275,-14.140000343322754,36.88999938964844,4.619999885559082
1744304520.275,-12.949999809265137,35.70000076293945,-0.21000000834465027
1744304520.275,-12.039999961853027,33.599998474121094,-5.809999942779541
1744304520.275,-11.550000190734863,31.920000076293945,-8.470000267028809
1744304520.275,-8.050000190734863,30.450000762939453,-7.420000076293945
1744304520.349,-7.769999980926514,28.700000762939453,-5.809999942779541
1744304520.349,-9.520000457763672,26.040000915527344,-2.7300000190734863
1744304520.349,-9.65999984741211,23.729999542236328,1.1200000047683716
1744304520.349,-7.559999942779541,21.280000686645508,4.199999809265137
1744304520.349,-3.009999990463257,20.229999542236328,8.399999618530273
1744304520.349,2.5899999141693115,19.31999969482422,9.869999885559082
1744304520.349,9.239999771118164,18.899999618530273,9.520000457763672
1744304520.349,13.859999656677246,17.989999771118164,7.490000247955322
1744304520.423,17.010000228881836,17.5,3.9200000762939453
1744304520.423,19.389999389648438,17.360000610351562,0.14000000059604645
1744304520.423,22.049999237060547,16.450000762939453,-4.480000019073486
1744304520.423,20.860000610351562,15.680000305175781,-8.399999618530273
1744304520.423,20.510000228881836,14.699999809265137,-9.869999885559082
1744304520.423,21,13.510000228881836,-10.920000076293945
1744304520.423,19.739999771118164,12.039999961853027,-10.5
1744304520.423,19.950000762939453,11.199999809265137,-8.329999923706055
1744304520.497,21.21000099182129,10.220000267028809,-5.460000038146973
1744304520.497,21.700000762939453,11.34000015258789,-1.6800000667572021
1744304520.497,20.15999984741211,13.579999923706055,1.0499999523162842
1744304520.497,18.200000762939453,14.210000038146973,0.9800000190734863
1744304520.497,15.819999694824219,13.859999656677246,0.21000000834465027
1744304520.497,12.109999656677246,14.069999694824219,0.699999988079071
1744304520.497,9.520000457763672,15.050000190734863,5.389999866485596
1744304520.497,12.529999732971191,14.210000038146973,7.139999866485596
1744304520.571,15.119999885559082,11.970000267028809,3.7799999713897705
1744304520.571,11.6899995803833,10.220000267028809,0.3499999940395355
1744304520.571,7.070000171661377,8.399999618530273,-2.6600000858306885
1744304520.571,5.740000247955322,7.699999809265137,-4.340000152587891
1744304520.571,4.269999980926514,6.019999980926514,-4.829999923706055
1744304520.571,2.799999952316284,5.809999942779541,-3.990000009536743
1744304520.571,2.240000009536743,5.740000247955322,-1.8200000524520874
1744304520.571,-1.9600000381469727,6.789999961853027,-3.2200000286102295
1744304520.646,0.21000000834465027,5.460000038146973,-0.07000000029802322
1744304520.646,-1.399999976158142,4.480000019073486,2.0999999046325684
1744304520.646,-4.130000114440918,4.130000114440918,4.619999885559082
1744304520.646,-6.650000095367432,3.7100000381469727,6.510000228881836
1744304520.646,-7.769999980926514,3.9200000762939453,6.789999961853027
1744304520.646,-7.630000114440918,4.550000190734863,6.159999847412109
1744304520.646,-8.75,3.8499999046325684,5.460000038146973
1744304520.646,-10.5,3.9200000762939453,4.130000114440918
1744304520.72,-9.59000015258789,5.320000171661377,3.0799999237060547
1744304520.72,-10.640000343322754,5.320000171661377,2.240000009536743
1744304520.72,-8.890000343322754,5.880000114440918,2.309999942779541
1744304520.72,-17.920000076293945,8.890000343322754,-1.1200000047683716
1744304520.72,-13.930000305175781,5.809999942779541,1.3300000429153442
1744304520.72,-10.359999656677246,4.96999979019165,4.96999979019165
1744304520.72,-9.520000457763672,4.96999979019165,6.789999961853027
1744304520.72,-9.239999771118164,5.179999828338623,8.609999656677246
1744304520.794,-12.25,9.3100004196167,3.5
1744304520.794,-6.720000267028809,2.380000114440918,8.119999885559082
1744304520.794,-6.300000190734863,0.14000000059604645,12.319999694824219
1744304520.794,-4.269999980926514,-0.9800000190734863,12.529999732971191
1744304520.794,-3.3600001335144043,-3.0799999237060547,11.34000015258789
1744304520.794,-1.5399999618530273,2.240000009536743,8.050000190734863
1744304520.794,-1.1200000047683716,-3.990000009536743,7.909999847412109
1744304520.794,0.7699999809265137,-9.380000114440918,8.260000228881836
1744304520.868,1.2599999904632568,-10.920000076293945,7.490000247955322
1744304520.868,0.6299999952316284,-11.760000228881836,6.019999980926514
1744304520.868,-2.7300000190734863,-14.420000076293945,3.430000066757202
1744304520.868,-2.0999999046325684,-13.440000534057617,1.6100000143051147
1744304520.868,1.4700000286102295,-14.350000381469727,0.49000000953674316
1744304520.868,4.619999885559082,-15.190000534057617,-0.8400000333786011
1744304520.868,7.699999809265137,-15.680000305175781,-1.6800000667572021
1744304520.868,10.710000038146973,-16.239999771118164,-2.940000057220459
1744304520.943,13.300000190734863,-15.050000190734863,-3.8499999046325684
1744304520.943,12.319999694824219,-15.050000190734863,-4.690000057220459
1744304520.943,9.730000495910645,-16.309999465942383,-7.070000171661377
1744304520.943,7.139999866485596,-14.84000015258789,-13.020000457763672
1744304520.943,10.779999732971191,-14,-20.229999542236328
1744304520.943,15.960000038146973,-14.069999694824219,-27.09000015258789
1744304520.943,15.119999885559082,-12.670000076293945,-31.56999969482422
1744304520.943,9.520000457763672,-11.199999809265137,-33.11000061035156
1744304521.017,5.949999809265137,-10.989999771118164,-34.02000045776367
1744304521.017,5.460000038146973,-11.34000015258789,-32.40999984741211
1744304521.017,5.039999961853027,-13.020000457763672,-27.579999923706055
1744304521.017,2.7300000190734863,-17.780000686645508,-19.18000030517578
1744304521.017,-3.569999933242798,-22.889999389648438,-10.289999961853027
1744304521.017,-10.779999732971191,-25.34000015258789,-5.179999828338623
1744304521.017,-12.8100004196167,-26.25,-3.7799999713897705
1744304521.017,-12.600000381469727,-25.829999923706055,-6.090000152587891
1744304521.091,-13.369999885559082,-23.8700008392334,-11.550000190734863
1744304521.091,-14.420000076293945,-20.440000534057617,-17.639999389648438
1744304521.091,-12.880000114440918,-16.520000457763672,-24.43000030517578
1744304521.091,-8.1899995803833,-13.579999923706055,-30.8700008392334
1744304521.091,-7.28000020980835,-14.770000457763672,-36.61000061035156
1744304521.091,0.9800000190734863,-15.470000267028809,-38.63999938964844
1744304521.091,8.260000228881836,-17.219999313354492,-36.61000061035156
1744304521.091,10.710000038146973,-19.8799991607666,-29.81999969482422
1744304521.165,11.6899995803833,-22.540000915527344,-22.75
1744304521.165,10.989999771118164,-23.520000457763672,-15.050000190734863
1744304521.165,11.899999618530273,-23.309999465942383,-8.050000190734863
1744304521.165,12.739999771118164,-23.030000686645508,-2.6600000858306885
1744304521.165,14.90999984741211,-22.329999923706055,0.9800000190734863
1744304521.165,17.010000228881836,-21.559999465942383,3.5
1744304521.165,19.46000099182129,-21.420000076293945,5.389999866485596
1744304521.165,20.229999542236328,-21.6299991607666,5.670000076293945
1744304521.239,20.93000030517578,-22.260000228881836,4.269999980926514
1744304521.239,20.229999542236328,-22.399999618530273,2.7300000190734863
1744304521.239,24.989999771118164,-21.139999389648438,1.1200000047683716
1744304521.239,22.75,-20.790000915527344,2.1700000762939453
1744304521.239,20.93000030517578,-20.579999923706055,3.3600001335144043
1744304521.239,19.46000099182129,-20.649999618530273,4.619999885559082
1744304521.239,19.809999465942383,-20.93000030517578,4.900000095367432
1744304521.239,19.110000610351562,-21,3.7100000381469727
1744304521.314,18.690000534057617,-20.579999923706055,0.699999988079071
1744304521.314,17.149999618530273,-19.739999771118164,-1.6800000667572021
1744304521.314,15.75,-19.110000610351562,-2.240000009536743
1744304521.314,12.739999771118164,-18.479999542236328,-2.0999999046325684
1744304521.314,10.220000267028809,-17.5,-2.5899999141693115
1744304521.314,8.680000305175781,-15.890000343322754,-3.569999933242798
1744304521.314,8.119999885559082,-15.399999618530273,-4.199999809265137
1744304521.314,7,-13.440000534057617,-3.7100000381469727
1744304521.388,5.809999942779541,-11.40999984741211,-3.8499999046325684
1744304521.388,3.640000104904175,-9.800000190734863,-4.480000019073486
1744304521.388,1.1200000047683716,-7.840000152587891,-5.25
1744304521.388,-0.3499999940395355,-5.110000133514404,-6.159999847412109
1744304521.388,0.07000000029802322,-2.5199999809265137,-7
1744304521.388,1.2599999904632568,-0.3499999940395355,-8.050000190734863
1744304521.388,2.870000123977661,1.9600000381469727,-9.239999771118164
1744304521.388,3.7100000381469727,4.550000190734863,-9.730000495910645
1744304521.462,4.199999809265137,6.929999828338623,-10.220000267028809
1744304521.462,4.480000019073486,8.819999694824219,-10.569999694824219
1744304521.462,5.179999828338623,10.010000228881836,-11.550000190734863
1744304521.462,6.300000190734863,10.640000343322754,-12.670000076293945
1744304521.462,8.960000038146973,11.130000114440918,-13.789999961853027
1744304521.462,11.829999923706055,12.039999961853027,-15.050000190734863
1744304521.462,12.739999771118164,13.510000228881836,-16.309999465942383
1744304521.462,11.829999923706055,14.420000076293945,-17.079999923706055
1744304521.536,9.9399995803833,13.789999961853027,-17.290000915527344
1744304521.536,8.050000190734863,13.440000534057617,-16.729999542236328
1744304521.536,7.420000076293945,14.699999809265137,-15.399999618530273
1744304521.536,8.399999618530273,14.980000495910645,-12.180000305175781
1744304521.536,8.680000305175781,15.050000190734863,-8.399999618530273
1744304521.536,8.890000343322754,15.890000343322754,-4.480000019073486
1744304521.536,7.769999980926514,16.8700008392334,-1.2599999904632568
1744304521.536,4.96999979019165,19.25,0.2800000011920929
1744304521.611,0.42000001668930054,19.040000915527344,0.6299999952316284
1744304521.611,-10.149999618530273,6.159999847412109,3.430000066757202
1744304521.611,-10.010000228881836,1.8899999856948853,8.399999618530273
1744304521.611,-6.159999847412109,-4.340000152587891,16.940000534057617
1744304521.611,-2.0299999713897705,-14.420000076293945,26.809999465942383
1744304521.611,-2.870000123977661,-11.480000495910645,34.02000045776367
1744304521.611,2.380000114440918,-9.59000015258789,37.72999954223633
1744304521.611,9.520000457763672,-6.230000019073486,43.33000183105469
1744304521.685,15.960000038146973,-3.569999933242798,47.040000915527344
1744304521.685,12.670000076293945,5.880000114440918,44.72999954223633
1744304521.685,16.030000686645508,12.8100004196167,38.9900016784668
1744304521.685,18.6200008392334,19.670000076293945,31.639999389648438
1744304521.685,12.880000114440918,25.200000762939453,24.290000915527344
1744304521.685,7.630000114440918,27.860000610351562,17.5
1744304521.685,4.550000190734863,27.510000228881836,12.739999771118164
1744304521.685,3.3600001335144043,22.469999313354492,9.65999984741211
1744304521.759,3.2899999618530273,15.329999923706055,8.819999694824219
1744304521.759,3.430000066757202,8.680000305175781,11.550000190734863
1744304521.759,6.300000190734863,4.340000152587891,17.219999313354492
1744304521.759,7.909999847412109,1.5399999618530273,22.81999969482422
1744304521.759,7.28000020980835,1.5399999618530273,24.5
1744304521.759,5.320000171661377,3.009999990463257,21.979999542236328
1744304521.759,3.640000104904175,5.25,18.479999542236328
1744304521.759,3.1500000953674316,7.909999847412109,14.420000076293945
1744304521.833,3.9200000762939453,10.359999656677246,9.730000495910645
1744304521.833,4.550000190734863,13.020000457763672,5.179999828338623
1744304521.833,5.039999961853027,15.609999656677246,1.190000057220459
1744304521.833,5.880000114440918,17.989999771118164,-1.190000057220459
1744304521.833,5.809999942779541,19.8799991607666,-1.6800000667572021
1744304521.833,5.320000171661377,19.739999771118164,-0.3499999940395355
1744304521.833,5.460000038146973,19.040000915527344,2.0299999713897705
1744304521.833,6.860000133514404,18.549999237060547,4.480000019073486
1744304521.907,8.050000190734863,16.8700008392334,5.740000247955322
1744304521.907,9.239999771118164,15.609999656677246,7.630000114440918
1744304521.907,8.680000305175781,15.75,9.100000381469727
1744304521.907,6.720000267028809,15.960000038146973,10.640000343322754
1744304521.907,5.599999904632568,15.75,11.270000457763672
1744304521.907,5.460000038146973,14.90999984741211,11.40999984741211
1744304521.907,4.550000190734863,13.720000267028809,11.130000114440918
1744304521.907,3.7100000381469727,13.15999984741211,10.850000381469727
1744304521.982,2.940000057220459,12.670000076293945,9.9399995803833
1744304521.982,2.6600000858306885,12.180000305175781,8.890000343322754
1744304521.982,3.430000066757202,11.899999618530273,7.139999866485596
1744304521.982,3.990000009536743,11.40999984741211,5.599999904632568
1744304521.982,5.880000114440918,10.920000076293945,4.760000228881836
1744304521.982,8.119999885559082,10.5,4.619999885559082
1744304521.982,7.559999942779541,9.869999885559082,4.619999885559082
1744304521.982,4.829999923706055,9.449999809265137,4.269999980926514
1744304522.056,0.9100000262260437,8.609999656677246,3.7100000381469727
1744304522.056,-3.3600001335144043,7.630000114440918,4.340000152587891
1744304522.056,-6.789999961853027,6.369999885559082,5.460000038146973
1744304522.056,-9.239999771118164,5.179999828338623,6.860000133514404
1744304522.056,-11.480000495910645,3.8499999046325684,7.699999809265137
1744304522.056,-13.230000495910645,3.5,8.329999923706055
1744304522.056,-15.329999923706055,3.0799999237060547,7.769999980926514
1744304522.056,-14.069999694824219,1.190000057220459,7.420000076293945
1744304522.13,-11.270000457763672,-1.190000057220459,7.210000038146973
1744304522.13,-7.909999847412109,-2.380000114440918,6.019999980926514
1744304522.13,-6.650000095367432,-1.9600000381469727,2.870000123977661
1744304522.13,-10.359999656677246,-3.569999933242798,-0.9100000262260437
1744304522.13,-9.730000495910645,-5.039999961853027,-2.380000114440918
1744304522.13,-10.989999771118164,-5.039999961853027,-2.450000047683716
1744304522.13,-12.039999961853027,-5.53000020980835,-1.6800000667572021
1744304522.13,-11.270000457763672,-5.670000076293945,-1.0499999523162842
1744304522.204,-8.75,-5.670000076293945,-0.42000001668930054
1744304522.204,-7.559999942779541,-5.809999942779541,-0.49000000953674316
1744304522.204,-6.929999828338623,-5.740000247955322,-1.4700000286102295
1744304522.204,-5.880000114440918,-5.389999866485596,-2.6600000858306885
1744304522.204,-4.619999885559082,-4.619999885559082,-3.640000104904175
1744304522.204,-3.7799999713897705,-3.640000104904175,-3.990000009536743
1744304522.204,-3.990000009536743,-3.1500000953674316,-3.9200000762939453
1744304522.204,-4.059999942779541,-3.1500000953674316,-3.640000104904175
1744304522.278,-3.7799999713897705,-4.130000114440918,-3.2899999618530273
1744304522.278,-3.5,-4.900000095367432,-2.5199999809265137
1744304522.278,-3.1500000953674316,-5.599999904632568,-1.3300000429153442
1744304522.278,-2.5199999809265137,-7.28000020980835,-0.07000000029802322
1744304522.278,-2.240000009536743,-8.609999656677246,1.2599999904632568
1744304522.278,-2.799999952316284,-9.65999984741211,2.450000047683716
1744304522.278,-3.8499999046325684,-9.869999885559082,2.940000057220459
1744304522.278,-4.900000095367432,-10.079999923706055,2.6600000858306885
1744304522.353,-6.019999980926514,-9.800000190734863,2.1700000762939453
1744304522.353,-6.159999847412109,-8.470000267028809,1.6800000667572021
1744304522.353,-7.769999980926514,-6.720000267028809,0.9100000262260437
1744304522.353,-8.119999885559082,-5.740000247955322,0.14000000059604645
1744304522.353,-8.329999923706055,-3.7100000381469727,-1.6100000143051147
1744304522.353,-7.699999809265137,-1.1200000047683716,-2.5899999141693115
1744304522.353,-7.699999809265137,0.699999988079071,-2.380000114440918
1744304522.353,-7.559999942779541,1.399999976158142,-1.6100000143051147
1744304522.427,-7.559999942779541,1.399999976158142,-0.07000000029802322
1744304522.427,-7.630000114440918,1.1200000047683716,1.2599999904632568
1744304522.427,-7.630000114440918,0.2800000011920929,2.240000009536743
1744304522.427,-8.680000305175781,-0.7699999809265137,2.450000047683716
1744304522.427,-9.3100004196167,-1.190000057220459,2.380000114440918
1744304522.427,-9.380000114440918,-0.6299999952316284,1.8899999856948853
1744304522.427,-9.3100004196167,-0.21000000834465027,1.3300000429153442
1744304522.427,-8.399999618530273,-0.07000000029802322,0.9800000190734863
1744304522.501,-6.929999828338623,-0.42000001668930054,0.8400000333786011
1744304522.501,-6.159999847412109,-0.07000000029802322,0.3499999940395355
1744304522.501,-5.25,0.3499999940395355,-0.21000000834465027
1744304522.501,-4.760000228881836,0.6299999952316284,-0.8400000333786011
1744304522.501,-3.2899999618530273,0.699999988079071,-1.190000057220459
1744304522.501,-2.940000057220459,0.7699999809265137,-1.1200000047683716
1744304522.501,-3.5,0.49000000953674316,-0.7699999809265137
1744304522.501,-3.9200000762939453,0.21000000834465027,-0.42000001668930054
1744304522.575,-4.269999980926514,0.3499999940395355,0.21000000834465027
1744304522.575,-4.760000228881836,1.1200000047683716,0.699999988079071
1744304522.575,-5.599999904632568,1.8899999856948853,1.0499999523162842
1744304522.575,-6.090000152587891,3.1500000953674316,1.190000057220459
1744304522.575,-6.300000190734863,4.550000190734863,1.399999976158142
1744304522.575,-6.230000019073486,5.949999809265137,2.0299999713897705
1744304522.575,-6.510000228881836,7.210000038146973,2.799999952316284
1744304522.575,-6.300000190734863,8.399999618530273,3.640000104904175
1744304522.65,-5.880000114440918,9.029999732971191,4.269999980926514
1744304522.65,-5.320000171661377,9.800000190734863,4.550000190734863
1744304522.65,-4.829999923706055,9.869999885559082,4.409999847412109
1744304522.65,-5.110000133514404,10.289999961853027,3.640000104904175
1744304522.65,-5.53000020980835,10.640000343322754,2.799999952316284
1744304522.65,-6.090000152587891,10.640000343322754,2.380000114440918
1744304522.65,-6.440000057220459,10.5,2.5899999141693115
1744304522.65,-6.159999847412109,9.730000495910645,3.1500000953674316
1744304522.724,-5.25,9.239999771118164,3.8499999046325684
1744304522.724,-4.340000152587891,9.029999732971191,4.199999809265137
1744304522.724,-4.059999942779541,8.960000038146973,4.340000152587891
1744304522.724,-3.990000009536743,9.029999732971191,4.199999809265137
1744304522.724,-3.990000009536743,9.3100004196167,3.7799999713897705
1744304522.724,-3.7799999713897705,9.800000190734863,3.569999933242798
1744304522.724,-4.130000114440918,10.010000228881836,3.430000066757202
1744304522.724,-4.059999942779541,9.800000190734863,2.799999952316284
1744304522.798,-3.5,9.380000114440918,2.1700000762939453
1744304522.798,-3.009999990463257,8.960000038146973,1.6100000143051147
1744304522.798,-2.940000057220459,8.539999961853027,1.1200000047683716
1744304522.798,-2.5899999141693115,7.980000019073486,0.6299999952316284
1744304522.798,-2.1700000762939453,7.349999904632568,0.2800000011920929
1744304522.798,-1.75,6.720000267028809,-0.07000000029802322
1744304522.798,-2.240000009536743,5.740000247955322,-0.2800000011920929
1744304522.798,-2.799999952316284,5.039999961853027,-0.7699999809265137
1744304522.872,-3.5,4.340000152587891,-0.9100000262260437
1744304522.872,-3.430000066757202,3.3600001335144043,-0.9800000190734863
1744304522.872,-2.940000057220459,2.7300000190734863,-0.9800000190734863
1744304522.872,-2.309999942779541,2.0299999713897705,-1.3300000429153442
1744304522.872,-1.9600000381469727,1.0499999523162842,-2.0999999046325684
1744304522.872,-1.9600000381469727,-0.5600000023841858,-3.009999990463257
1744304522.872,-1.75,-2.380000114440918,-3.8499999046325684
1744304522.872,-1.75,-3.7799999713897705,-4.760000228881836
1744304522.946,-2.0999999046325684,-5.179999828338623,-5.53000020980835
1744304522.946,-2.7300000190734863,-6.440000057220459,-6.019999980926514
1744304522.946,-3.0799999237060547,-7.490000247955322,-6.090000152587891
1744304522.946,-3.2200000286102295,-9.100000381469727,-5.809999942779541
1744304522.946,-2.7300000190734863,-10.5,-5.670000076293945
1744304522.946,-2.240000009536743,-11.130000114440918,-5.460000038146973
1744304522.946,-2.380000114440918,-11.899999618530273,-5.320000171661377
1744304522.946,-2.309999942779541,-12.319999694824219,-5.320000171661377
1744304523.021,-2.309999942779541,-12.8100004196167,-5.460000038146973
1744304523.021,-2.799999952316284,-13.300000190734863,-5.740000247955322
1744304523.021,-3.2200000286102295,-13.649999618530273,-5.949999809265137
1744304523.021,-3.430000066757202,-14,-6.090000152587891
1744304523.021,-3.430000066757202,-14.140000343322754,-6.090000152587891
1744304523.021,-3.3600001335144043,-14.140000343322754,-6.090000152587891
1744304523.021,-3.0799999237060547,-14.770000457763672,-5.880000114440918
1744304523.021,-2.450000047683716,-14,-5.599999904632568
1744304523.095,-2.1700000762939453,-13.369999885559082,-5.460000038146973
1744304523.095,-2.0299999713897705,-12.390000343322754,-5.460000038146973
1744304523.095,-2.240000009536743,-11.899999618530273,-5.25
1744304523.095,-2.5199999809265137,-10.989999771118164,-4.829999923706055
1744304523.095,-2.940000057220459,-10.430000305175781,-4.199999809265137
1744304523.095,-1.5399999618530273,-10.430000305175781,-3.7100000381469727
1744304523.095,-0.3499999940395355,-9.239999771118164,-3.7799999713897705
1744304523.095,-0.14000000059604645,-7.769999980926514,-3.3600001335144043
1744304523.169,-0.3499999940395355,-6.929999828338623,-2.6600000858306885
1744304523.169,0.49000000953674316,-4.900000095367432,-1.6100000143051147
1744304523.169,0.2800000011920929,-4.130000114440918,-1.1200000047683716
1744304523.169,0.9800000190734863,-2.6600000858306885,-0.42000001668930054
1744304523.169,1.399999976158142,-2.380000114440918,-0.07000000029802322
1744304523.169,2.0999999046325684,-3.009999990463257,-0.21000000834465027
1744304523.169,2.940000057220459,-1.75,0.14000000059604645
1744304523.169,2.870000123977661,-0.49000000953674316,0.3499999940395355
1744304523.243,2.940000057220459,0.3499999940395355,0.8400000333786011
1744304523.243,2.380000114440918,-0.699999988079071,1.4700000286102295
1744304523.243,2.0999999046325684,0.07000000029802322,2.0299999713897705
1744304523.243,2.0299999713897705,0.699999988079071,2.450000047683716
1744304523.243,1.5399999618530273,5.320000171661377,3.569999933242798
1744304523.243,-1.6800000667572021,3.7799999713897705,2.799999952316284
1744304523.243,-1.8200000524520874,0.9100000262260437,1.2599999904632568
1744304523.243,-0.21000000834465027,-0.14000000059604645,0.14000000059604645
1744304523.318,0.21000000834465027,-0.21000000834465027,-0.3499999940395355
1744304523.318,0.8400000333786011,-0.14000000059604645,-0.6299999952316284
1744304523.318,0.07000000029802322,-0.21000000834465027,-0.5600000023841858
1744304523.318,0.21000000834465027,-0.7699999809265137,0.14000000059604645
1744304523.318,-0.14000000059604645,-0.6299999952316284,1.0499999523162842
1744304523.318,-1.399999976158142,-0.07000000029802322,1.399999976158142
1744304523.318,-2.0999999046325684,0.21000000834465027,1.75
1744304523.318,-2.5199999809265137,0.7699999809265137,2.240000009536743
1744304523.392,-2.309999942779541,1.3300000429153442,2.940000057220459
1744304523.392,-1.75,1.5399999618530273,3.009999990463257
1744304523.392,-1.190000057220459,1.9600000381469727,2.380000114440918
1744304523.392,-1.399999976158142,1.9600000381469727,2.0999999046325684
1744304523.392,-1.3300000429153442,2.1700000762939453,2.450000047683716
1744304523.392,-1.1200000047683716,2.0999999046325684,3.0799999237060547
1744304523.392,-0.8400000333786011,1.9600000381469727,2.940000057220459
1744304523.392,0.14000000059604645,2.1700000762939453,2.5199999809265137
1744304523.466,0.9800000190734863,2.870000123977661,1.8899999856948853
1744304523.466,1.399999976158142,3.9200000762939453,1.6800000667572021
1744304523.466,1.2599999904632568,4.96999979019165,2.0999999046325684
1744304523.466,1.4700000286102295,6.090000152587891,2.870000123977661
1744304523.466,1.1200000047683716,7.559999942779541,3.569999933242798
1744304523.466,0.2800000011920929,9.029999732971191,3.9200000762939453
1744304523.466,0.3499999940395355,10.289999961853027,4.059999942779541
1744304523.466,1.0499999523162842,10.850000381469727,4.059999942779541
1744304523.54,2.0299999713897705,11.0600004196167,4.130000114440918
1744304523.54,3.5,11.899999618530273,4.269999980926514
1744304523.54,3.7100000381469727,11.899999618530273,4.340000152587891
1744304523.54,4.829999923706055,11.199999809265137,5.110000133514404
1744304523.54,3.430000066757202,12.8100004196167,5.599999904632568
1744304523.54,2.7300000190734863,11.199999809265137,4.340000152587891
1744304523.54,4.619999885559082,7.559999942779541,3.2899999618530273
1744304523.54,6.720000267028809,6.650000095367432,2.799999952316284
1744304523.614,6.510000228881836,6.369999885559082,2.5199999809265137
1744304523.614,5.53000020980835,4.96999979019165,2.380000114440918
1744304523.614,4.409999847412109,3.990000009536743,2.1700000762939453
1744304523.614,4.199999809265137,2.940000057220459,2.5899999141693115
1744304523.614,3.990000009536743,1.75,3.2200000286102295
1744304523.614,3.9200000762939453,2.309999942779541,3.990000009536743
1744304523.614,0.9800000190734863,2.1700000762939453,3.7799999713897705
1744304523.614,1.75,1.6100000143051147,4.760000228881836
1744304523.689,-0.3499999940395355,0.07000000029802322,3.5
1744304523.689,0.21000000834465027,0.21000000834465027,3.2899999618530273
1744304523.689,-1.5399999618530273,0.42000001668930054,4.199999809265137
1744304523.689,-1.3300000429153442,8.539999961853027,5.740000247955322
1744304523.689,-4.059999942779541,3.430000066757202,5.25
1744304523.689,-5.039999961853027,-2.450000047683716,2.309999942779541
1744304523.689,-4.340000152587891,-5.460000038146973,1.4700000286102295
1744304523.689,-3.9200000762939453,-1.0499999523162842,0.8400000333786011
1744304523.763,-3.569999933242798,1.0499999523162842,-1.8200000524520874
1744304523.763,-1.0499999523162842,-2.0999999046325684,-2.7300000190734863
1744304523.763,0.49000000953674316,-4.269999980926514,-3.0799999237060547
1744304523.763,1.8200000524520874,-6.369999885559082,-3.5
1744304523.763,2.380000114440918,-5.670000076293945,-3.7799999713897705
1744304523.763,0.8400000333786011,-5.670000076293945,-4.340000152587891
1744304523.763,0,-5.110000133514404,-4.550000190734863
1744304523.763,0.2800000011920929,-5.53000020980835,-4.480000019073486
1744304523.837,0.699999988079071,-4.96999979019165,-3.990000009536743
1744304523.837,1.5399999618530273,-4.829999923706055,-3.009999990463257
1744304523.837,1.6800000667572021,-3.1500000953674316,-1.3300000429153442
1744304523.837,1.8899999856948853,-2.450000047683716,0.42000001668930054
1744304523.837,2.1700000762939453,-2.309999942779541,0.7699999809265137
1744304523.837,3.7799999713897705,-2.870000123977661,0.21000000834465027
1744304523.837,4.550000190734863,-1.9600000381469727,-0.8400000333786011
1744304523.837,5.670000076293945,-1.399999976158142,-1.2599999904632568
1744304523.911,5.949999809265137,-1.1200000047683716,-0.7699999809265137
1744304523.911,6.159999847412109,-1.4700000286102295,0.14000000059604645
1744304523.911,6.579999923706055,-1.8899999856948853,0.42000001668930054
1744304523.911,6.650000095367432,-2.1700000762939453,0.07000000029802322
1744304523.911,5.880000114440918,-2.5899999141693115,-0.8400000333786011
1744304523.911,4.269999980926514,-3.2899999618530273,-2.1700000762939453
1744304523.911,2.7300000190734863,-3.430000066757202,-3.009999990463257
1744304523.911,2.6600000858306885,-4.480000019073486,-2.799999952316284
1744304523.986,3.9200000762939453,-5.179999828338623,-2.0999999046325684
1744304523.986,6.369999885559082,-6.159999847412109,-1.2599999904632568
1744304523.986,8.1899995803833,-7.349999904632568,-0.9100000262260437
1744304523.986,8.470000267028809,-7.769999980926514,-1.399999976158142
1744304523.986,7.559999942779541,-7.559999942779541,-1.6100000143051147
1744304523.986,6.369999885559082,-7.909999847412109,-1.5399999618530273
1744304523.986,5.320000171661377,-7.559999942779541,-1.8899999856948853
1744304523.986,2.940000057220459,-7.559999942779541,-2.5899999141693115
1744304524.06,1.0499999523162842,-8.050000190734863,-2.7300000190734863
1744304524.06,0.699999988079071,-8.1899995803833,-2.5899999141693115
1744304524.06,0.6299999952316284,-8.680000305175781,-2.1700000762939453
1744304524.06,0.9100000262260437,-7.420000076293945,-3.430000066757202
1744304524.06,3.2200000286102295,-5.039999961853027,-1.9600000381469727
1744304524.06,5.53000020980835,-3.5,0.3499999940395355
1744304524.06,5.740000247955322,-2.309999942779541,1.4700000286102295
1744304524.06,3.990000009536743,-1.1200000047683716,1.399999976158142
1744304524.134,2.5899999141693115,-0.8400000333786011,1.1200000047683716
1744304524.134,1.5399999618530273,-0.07000000029802322,1.3300000429153442
1744304524.134,0.9800000190734863,2.0999999046325684,2.5199999809265137
1744304524.134,0.3499999940395355,4.409999847412109,4.340000152587891
1744304524.134,-0.42000001668930054,5.320000171661377,6.230000019073486
1744304524.134,-2.0299999713897705,6.440000057220459,7.490000247955322
1744304524.134,-3.990000009536743,7.210000038146973,7.909999847412109
1744304524.134,-6.159999847412109,7.28000020980835,8.399999618530273
1744304524.208,-7.630000114440918,7.139999866485596,8.470000267028809
1744304524.208,-7.28000020980835,8.050000190734863,8.050000190734863
1744304524.208,-4.96999979019165,9.449999809265137,8.119999885559082
1744304524.208,-3.1500000953674316,10.289999961853027,7.490000247955322
1744304524.208,-1.5399999618530273,10.220000267028809,6.019999980926514
1744304524.208,0.14000000059604645,10.220000267028809,4.550000190734863
1744304524.208,1.0499999523162842,10.710000038146973,3.2200000286102295
1744304524.208,2.0999999046325684,10.289999961853027,2.5899999141693115
1744304524.282,2.0299999713897705,9.170000076293945,2.5199999809265137
1744304524.282,1.5399999618530273,7.420000076293945,1.8899999856948853
1744304524.282,0.2800000011920929,6.720000267028809,0.7699999809265137
1744304524.282,-1.399999976158142,5.880000114440918,0.07000000029802322
1744304524.282,-3.2200000286102295,4.829999923706055,-0.14000000059604645
1744304524.282,-3.7100000381469727,3.8499999046325684,0
1744304524.282,-2.1700000762939453,2.799999952316284,0.7699999809265137
1744304524.282,-0.5600000023841858,2.5899999141693115,2.0299999713897705
1744304524.357,-0.5600000023841858,1.8200000524520874,2.870000123977661
1744304524.357,-1.6100000143051147,0.7699999809265137,2.7300000190734863
1744304524.357,-3.3600001335144043,-0.42000001668930054,2.380000114440918
1744304524.357,-4.760000228881836,-1.1200000047683716,1.4700000286102295
1744304524.357,-4.96999979019165,-1.6800000667572021,0.699999988079071
1744304524.357,-4.900000095367432,-0.9800000190734863,0.9800000190734863
1744304524.357,-5.599999904632568,0.2800000011920929,1.1200000047683716
1744304524.357,-4.130000114440918,1.6100000143051147,2.450000047683716
1744304524.431,-2.309999942779541,2.0999999046325684,4.619999885559082
1744304524.431,-2.6600000858306885,5.25,4.690000057220459
1744304524.431,0.14000000059604645,2.380000114440918,5.039999961853027
1744304524.431,-0.9100000262260437,4.340000152587891,2.7300000190734863
1744304524.431,-0.3499999940395355,2.799999952316284,-0.5600000023841858
1744304524.431,0.699999988079071,-0.7699999809265137,-1.2599999904632568
1744304524.431,0,1.0499999523162842,0.8400000333786011
1744304524.431,-2.309999942779541,2.6600000858306885,2.380000114440918
1744304524.505,-4.199999809265137,2.1700000762939453,3.5
1744304524.505,-4.96999979019165,2.7300000190734863,4.199999809265137
1744304524.505,-3.7100000381469727,3.0799999237060547,4.829999923706055
1744304524.505,-3.2899999618530273,2.309999942779541,4.619999885559082
1744304524.505,-2.240000009536743,4.059999942779541,3.990000009536743
1744304524.505,0.6299999952316284,5.740000247955322,3.7799999713897705
1744304524.505,2.6600000858306885,6.019999980926514,3.2899999618530273
1744304524.505,3.2899999618530273,6.019999980926514,2.5199999809265137
1744304524.579,4.130000114440918,6.159999847412109,1.6800000667572021
1744304524.579,5.110000133514404,5.599999904632568,1.1200000047683716
1744304524.579,5.389999866485596,4.690000057220459,0.6299999952316284
1744304524.579,5.670000076293945,4.550000190734863,0.8400000333786011
1744304524.579,5.599999904632568,5.039999961853027,1.6800000667572021
1744304524.579,4.760000228881836,5.039999961853027,2.5899999141693115
1744304524.579,2.6600000858306885,5.320000171661377,2.870000123977661
1744304524.579,0.3499999940395355,4.96999979019165,2.870000123977661
1744304524.653,-0.9100000262260437,5.039999961853027,2.940000057220459
1744304524.653,-1.75,5.110000133514404,3.430000066757202
1744304524.653,-1.6800000667572021,5.179999828338623,4.829999923706055
1744304524.653,-1.6100000143051147,5.949999809265137,6.230000019073486
1744304524.653,-1.1200000047683716,6.230000019073486,7.420000076293945
1744304524.653,-0.2800000011920929,5.949999809265137,7.769999980926514
1744304524.653,0.21000000834465027,5.25,6.929999828338623
1744304524.653,-0.9800000190734863,4.340000152587891,4.619999885559082
1744304524.728,0.2800000011920929,4.690000057220459,2.450000047683716
1744304524.728,1.0499999523162842,4.619999885559082,1.190000057220459
1744304524.728,0.8400000333786011,5.039999961853027,0.5600000023841858
1744304524.728,1.2599999904632568,5.670000076293945,1.0499999523162842
1744304524.728,2.0999999046325684,5.110000133514404,2.5199999809265137
1744304524.728,2.450000047683716,5.039999961853027,3.2899999618530273
1744304524.728,1.75,5.320000171661377,3.009999990463257
1744304524.728,1.9600000381469727,5.389999866485596,2.450000047683716
1744304524.802,2.450000047683716,4.690000057220459,2.5899999141693115
1744304524.802,2.5199999809265137,3.990000009536743,2.7300000190734863
1744304524.802,1.75,3.0799999237060547,2.380000114440918
1744304524.802,0.6299999952316284,2.309999942779541,1.4700000286102295
1744304524.802,-1.4700000286102295,2.240000009536743,1.2599999904632568
1744304524.802,-2.0999999046325684,1.75,1.6100000143051147
1744304524.802,-1.8899999856948853,1.1200000047683716,1.9600000381469727
1744304524.802,-0.42000001668930054,0.21000000834465027,1.6100000143051147
1744304524.876,0.49000000953674316,-0.5600000023841858,1.3300000429153442
1744304524.876,0.699999988079071,-1.6100000143051147,0.9100000262260437
1744304524.876,-0.6299999952316284,-2.940000057220459,0.9100000262260437
1744304524.876,-2.799999952316284,-3.8499999046325684,0.9100000262260437
1744304524.876,-3.7799999713897705,-4.130000114440918,0.699999988079071
1744304524.876,-5.25,-6.860000133514404,-0.14000000059604645
1744304524.876,-4.96999979019165,-7.909999847412109,-1.9600000381469727
1744304524.876,-3.0799999237060547,-8.819999694824219,-3.430000066757202
1744304524.95,-2.0999999046325684,-9.869999885559082,-4.269999980926514
1744304524.95,-1.399999976158142,-11.130000114440918,-4.550000190734863
1744304524.95,-2.0299999713897705,-11.480000495910645,-5.53000020980835
1744304524.95,2.309999942779541,-15.399999618530273,-7
1744304524.95,2.6600000858306885,-17.780000686645508,-8.75
1744304524.95,2.7300000190734863,-18.899999618530273,-9.3100004196167
1744304524.95,1.75,-18.969999313354492,-9.100000381469727
1744304524.95,1.8899999856948853,-18.549999237060547,-7.769999980926514
1744304525.025,2.0999999046325684,-18.549999237060547,-6.650000095367432
1744304525.025,2.0999999046325684,-18.059999465942383,-5.949999809265137
1744304525.025,1.9600000381469727,-16.65999984741211,-5.110000133514404
1744304525.025,2.0999999046325684,-16.170000076293945,-3.569999933242798
1744304525.025,2.5199999809265137,-15.75,-1.9600000381469727
1744304525.025,3.0799999237060547,-14.279999732971191,-1.1200000047683716
1744304525.025,3.7100000381469727,-12.390000343322754,-0.6299999952316284
1744304525.025,4.409999847412109,-10.710000038146973,-0.3499999940395355
1744304525.099,4.550000190734863,-9.3100004196167,-0.21000000834465027
1744304525.099,4.96999979019165,-7.909999847412109,0
1744304525.099,5.179999828338623,-6.860000133514404,0.14000000059604645
1744304525.099,4.96999979019165,-5.740000247955322,0.07000000029802322
1744304525.099,4.269999980926514,-4.96999979019165,-0.21000000834465027
1744304525.099,3.7799999713897705,-4.199999809265137,-0.21000000834465027
1744304525.099,3.990000009536743,-2.940000057220459,0.14000000059604645
1744304525.099,4.340000152587891,-2.0299999713897705,0.49000000953674316
1744304525.173,4.96999979019165,-1.1200000047683716,1.0499999523162842
1744304525.173,5.740000247955322,0,2.0299999713897705
1744304525.173,5.880000114440918,0.9100000262260437,2.5899999141693115
1744304525.173,6.019999980926514,1.6100000143051147,2.799999952316284
1744304525.173,5.320000171661377,3.1500000953674316,3.2200000286102295
1744304525.173,5.389999866485596,4.96999979019165,3.640000104904175
1744304525.173,6.300000190734863,5.460000038146973,4.199999809265137
1744304525.173,6.090000152587891,5.809999942779541,4.480000019073486
1744304525.247,4.829999923706055,6.300000190734863,4.690000057220459
1744304525.247,3.990000009536743,6.230000019073486,4.199999809265137
1744304525.247,3.640000104904175,6.440000057220459,4.199999809265137
1744304525.247,3.2899999618530273,6.510000228881836,4.760000228881836
1744304525.247,2.870000123977661,5.949999809265137,4.829999923706055
1744304525.247,2.5199999809265137,5.389999866485596,4.619999885559082
1744304525.247,2.0999999046325684,4.269999980926514,4.059999942779541
1744304525.247,1.8200000524520874,2.870000123977661,3.2200000286102295
1744304525.321,1.8200000524520874,1.190000057220459,2.380000114440918
1744304525.321,1.4700000286102295,-0.8400000333786011,1.6100000143051147
1744304525.321,-0.07000000029802322,-2.240000009536743,0.7699999809265137
1744304525.321,-1.8899999856948853,-4.059999942779541,0.42000001668930054
1744304525.321,-2.450000047683716,-6.159999847412109,0
1744304525.321,-1.5399999618530273,-7.559999942779541,-1.190000057220459
1744304525.321,-0.07000000029802322,-9.3100004196167,-2.0999999046325684
1744304525.321,0.8400000333786011,-11.0600004196167,-3.0799999237060547
1744304525.396,1.3300000429153442,-13.789999961853027,-3.2899999618530273
1744304525.396,1.190000057220459,-15.399999618530273,-3.8499999046325684
1744304525.396,-0.07000000029802322,-15.75,-4.199999809265137
1744304525.396,-1.4700000286102295,-15.680000305175781,-3.7100000381469727
1744304525.396,-1.8899999856948853,-15.539999961853027,-3.0799999237060547
1744304525.396,-1.6800000667572021,-15.260000228881836,-2.380000114440918
1744304525.396,-1.8200000524520874,-14.90999984741211,-1.6800000667572021
1744304525.396,-1.6100000143051147,-14.84000015258789,-1.0499999523162842
1744304525.47,-1.399999976158142,-14,-1.0499999523162842
1744304525.47,-0.49000000953674316,-13.510000228881836,-1.1200000047683716
1744304525.47,0.2800000011920929,-12.8100004196167,-1.9600000381469727
1744304525.47,1.0499999523162842,-12.039999961853027,-3.2200000286102295
1744304525.47,1.2599999904632568,-10.569999694824219,-4.409999847412109
1744304525.47,1.190000057220459,-9.3100004196167,-5.389999866485596
1744304525.47,1.4700000286102295,-9.65999984741211,-5.599999904632568
1744304525.47,0.9100000262260437,-9.100000381469727,-5.25
1744304525.544,1.2599999904632568,-8.050000190734863,-4.409999847412109
1744304525.544,1.6800000667572021,-7.139999866485596,-2.870000123977661
1744304525.544,2.0299999713897705,-5.949999809265137,-1.399999976158142
1744304525.544,2.309999942779541,-4.829999923706055,-0.699999988079071
1744304525.544,1.6100000143051147,-4.130000114440918,-0.2800000011920929
1744304525.544,0.5600000023841858,-3.640000104904175,-0.07000000029802322
1744304525.544,-0.42000001668930054,-3.2200000286102295,0.42000001668930054
1744304525.544,-0.21000000834465027,-2.309999942779541,0.6299999952316284
1744304525.618,0.2800000011920929,0,0.2800000011920929
1744304525.618,0.9100000262260437,1.8899999856948853,0.49000000953674316
1744304525.618,0.9100000262260437,2.240000009536743,1.4700000286102295
1744304525.618,1.4700000286102295,2.6600000858306885,1.9600000381469727
1744304525.618,1.75,3.430000066757202,1.9600000381469727
1744304525.618,1.2599999904632568,4.409999847412109,1.8200000524520874
1744304525.618,0.42000001668930054,4.900000095367432,1.8200000524520874
1744304525.618,-0.5600000023841858,5.599999904632568,1.6800000667572021
1744304525.693,-1.6100000143051147,6.440000057220459,1.4700000286102295
1744304525.693,-2.309999942779541,7.139999866485596,1.75
1744304525.693,-2.0999999046325684,8.260000228881836,2.0299999713897705
1744304525.693,-1.190000057220459,9.100000381469727,2.6600000858306885
1744304525.693,-1.5399999618530273,9.730000495910645,3.569999933242798
1744304525.693,-0.9800000190734863,10.779999732971191,4.409999847412109
1744304525.693,-1.2599999904632568,11.760000228881836,5.460000038146973
1744304525.693,-0.699999988079071,12.600000381469727,6.090000152587891
1744304525.767,0.49000000953674316,13.300000190734863,5.809999942779541
1744304525.767,1.0499999523162842,13.789999961853027,4.96999979019165
1744304525.767,1.8200000524520874,14.210000038146973,4.269999980926514
1744304525.767,0.9800000190734863,14.210000038146973,4.130000114440918
1744304525.767,-0.3499999940395355,13.649999618530273,4.760000228881836
1744304525.767,0,12.8100004196167,5.460000038146973
1744304525.767,-0.2800000011920929,12.180000305175781,5.599999904632568
1744304525.767,0.07000000029802322,11.619999885559082,5.670000076293945
1744304525.841,0.49000000953674316,11.0600004196167,5.53000020980835
1744304525.841,1.0499999523162842,10.220000267028809,5.25
1744304525.841,0.5600000023841858,9.65999984741211,4.690000057220459
1744304525.841,1.3300000429153442,9.239999771118164,3.9200000762939453
1744304525.841,1.399999976158142,8.960000038146973,3.569999933242798
1744304525.841,-0.21000000834465027,8.119999885559082,3.640000104904175
1744304525.841,-1.1200000047683716,7.28000020980835,3.7100000381469727
1744304525.841,-1.4700000286102295,6.650000095367432,3.7799999713897705
1744304525.915,-2.380000114440918,6.019999980926514,3.640000104904175
1744304525.915,-1.2599999904632568,6.230000019073486,3.430000066757202
1744304525.915,-1.5399999618530273,5.949999809265137,3.2200000286102295
1744304525.915,-1.190000057220459,6.300000190734863,3.2200000286102295
1744304525.915,-2.1700000762939453,6.510000228881836,3.430000066757202
1744304525.915,-3.0799999237060547,6.510000228881836,4.059999942779541
1744304525.915,-3.3600001335144043,6.159999847412109,4.550000190734863
1744304525.915,-4.059999942779541,4.829999923706055,4.409999847412109
1744304525.989,-4.269999980926514,3.7100000381469727,3.569999933242798
1744304525.989,-4.619999885559082,2.799999952316284,2.240000009536743
1744304525.989,-4.480000019073486,2.6600000858306885,1.6800000667572021
1744304525.989,-3.640000104904175,2.6600000858306885,2.450000047683716
1744304525.989,-2.940000057220459,2.240000009536743,3.2899999618530273
1744304525.989,-2.870000123977661,0.49000000953674316,3.3600001335144043
1744304525.989,-1.0499999523162842,-0.3499999940395355,2.309999942779541
1744304525.989,-0.5600000023841858,-1.0499999523162842,0.699999988079071
1744304526.064,-0.9800000190734863,-0.9100000262260437,-0.14000000059604645
1744304526.064,-1.8899999856948853,-0.6299999952316284,0.07000000029802322
1744304526.064,-2.5899999141693115,-1.75,0.42000001668930054
1744304526.064,0.07000000029802322,-3.009999990463257,-0.21000000834465027
1744304526.064,-2.0299999713897705,-3.009999990463257,-1.75
1744304526.064,-0.8400000333786011,-2.7300000190734863,-1.5399999618530273
1744304526.064,1.190000057220459,-3.430000066757202,0.2800000011920929
1744304526.064,1.399999976158142,-3.7799999713897705,2.240000009536743
1744304526.138,0.21000000834465027,-4.550000190734863,3.7799999713897705
1744304526.138,1.0499999523162842,-3.990000009536743,3.7799999713897705
1744304526.138,1.2599999904632568,-3.9200000762939453,2.5899999141693115
1744304526.138,0.49000000953674316,-2.1700000762939453,1.190000057220459
1744304526.138,-0.49000000953674316,0.42000001668930054,0.42000001668930054
1744304526.138,0,2.0999999046325684,0.07000000029802322
1744304526.138,-0.8400000333786011,3.640000104904175,-0.42000001668930054
1744304526.138,-0.7699999809265137,2.940000057220459,0.49000000953674316
1744304526.212,-0.8400000333786011,3.009999990463257,1.75
1744304526.212,0.21000000834465027,3.2200000286102295,2.870000123977661
1744304526.212,1.6800000667572021,3.1500000953674316,3.7799999713897705
1744304526.212,3.640000104904175,2.799999952316284,3.7799999713897705
1744304526.212,5.110000133514404,2.940000057220459,3.1500000953674316
1744304526.212,5.179999828338623,3.009999990463257,3.009999990463257
1744304526.212,4.900000095367432,3.5,3.2200000286102295
1744304526.212,3.8499999046325684,3.009999990463257,3.5
1744304526.286,2.870000123977661,2.870000123977661,3.2899999618530273
1744304526.286,3.0799999237060547,3.430000066757202,2.309999942779541
1744304526.286,3.1500000953674316,3.569999933242798,1.75
1744304526.286,2.870000123977661,2.380000114440918,1.190000057220459
1744304526.286,4.130000114440918,1.6800000667572021,1.0499999523162842
1744304526.286,5.740000247955322,1.3300000429153442,1.3300000429153442
1744304526.286,6.579999923706055,1.5399999618530273,1.4700000286102295
1744304526.286,6.510000228881836,0.8400000333786011,1.75
1744304526.361,6.789999961853027,-0.07000000029802322,1.8200000524520874
1744304526.361,5.880000114440918,-0.699999988079071,1.4700000286102295
1744304526.361,5.320000171661377,-1.3300000429153442,1.2599999904632568
1744304526.361,3.430000066757202,-0.7699999809265137,1.4700000286102295
1744304526.361,3.569999933242798,-1.2599999904632568,1.5399999618530273
1744304526.361,1.2599999904632568,-2.5199999809265137,1.8899999856948853
1744304526.361,0.42000001668930054,-2.1700000762939453,2.450000047683716
1744304526.361,-1.6800000667572021,-2.6600000858306885,1.6800000667572021
1744304526.435,-0.9800000190734863,-4.550000190734863,0.9100000262260437
1744304526.435,0.9800000190734863,-5.670000076293945,0
1744304526.435,0.6299999952316284,-6.860000133514404,-0.7699999809265137
1744304526.435,1.1200000047683716,-21,-2.799999952316284
1744304526.435,7.420000076293945,-20.860000610351562,-5.53000020980835
1744304526.435,-2.799999952316284,-11.6899995803833,-4.829999923706055
1744304526.435,-2.7300000190734863,-8.260000228881836,-3.3600001335144043
1744304526.435,-2.0999999046325684,-8.470000267028809,-2.799999952316284
1744304526.509,-3.569999933242798,-10.079999923706055,-2.5199999809265137
1744304526.509,-4.409999847412109,-10.5,-1.75
1744304526.509,-1.6800000667572021,-9.3100004196167,-0.3499999940395355
1744304526.509,1.9600000381469727,-9.800000190734863,-0.5600000023841858
1744304526.509,0.21000000834465027,-9.520000457763672,-2.870000123977661
1744304526.509,-1.6800000667572021,-7.980000019073486,-4.409999847412109
1744304526.509,-2.940000057220459,-7.630000114440918,-2.940000057220459
1744304526.509,-3.640000104904175,-7.630000114440918,0.7699999809265137
1744304526.583,-3.8499999046325684,-7.070000171661377,3.0799999237060547
1744304526.583,-3.2200000286102295,-6.230000019073486,3.7799999713897705
1744304526.583,-0.2800000011920929,-4.130000114440918,2.799999952316284
1744304526.583,1.2599999904632568,-3.2200000286102295,-0.07000000029802322
1744304526.583,1.8899999856948853,-2.6600000858306885,-4.199999809265137
1744304526.583,-0.5600000023841858,-2.0299999713897705,-7.420000076293945
1744304526.583,-2.5899999141693115,-2.0299999713897705,-8.75
1744304526.583,-5.110000133514404,-1.399999976158142,-7.909999847412109
1744304526.657,-7.769999980926514,-0.07000000029802322,-3.430000066757202
1744304526.657,-8.609999656677246,1.5399999618530273,2.940000057220459
1744304526.657,-8.819999694824219,2.450000047683716,8.260000228881836
1744304526.657,-6.929999828338623,3.5,11.34000015258789
1744304526.657,-3.430000066757202,4.760000228881836,11.199999809265137
1744304526.657,-0.2800000011920929,5.179999828338623,8.119999885559082
1744304526.657,0.3499999940395355,5.949999809265137,3.2200000286102295
1744304526.657,0.2800000011920929,6.300000190734863,-0.9800000190734863
1744304526.732,-0.3499999940395355,5.740000247955322,-4.130000114440918
1744304526.732,-2.1700000762939453,5.949999809265137,-5.670000076293945
1744304526.732,-2.0999999046325684,6.720000267028809,-5.039999961853027
1744304526.732,-1.6800000667572021,7.559999942779541,-3.0799999237060547
1744304526.732,-1.4700000286102295,8.119999885559082,-0.07000000029802322
1744304526.732,-0.6299999952316284,7.909999847412109,2.380000114440918
1744304526.732,-0.2800000011920929,7.490000247955322,3.2200000286102295
1744304526.732,0.3499999940395355,6.510000228881836,2.450000047683716
1744304526.806,0.07000000029802322,5.25,0.8400000333786011
1744304526.806,-0.7699999809265137,4.760000228881836,-0.3499999940395355
1744304526.806,-1.75,4.269999980926514,-0.2800000011920929
1744304526.806,-2.0299999713897705,3.7799999713897705,0.42000001668930054
1744304526.806,-2.380000114440918,3.0799999237060547,1.8200000524520874
1744304526.806,-2.450000047683716,2.240000009536743,3.5
1744304526.806,-2.6600000858306885,1.0499999523162842,4.900000095367432
1744304526.806,-2.450000047683716,0.699999988079071,5.389999866485596
1744304526.88,-2.1700000762939453,-0.07000000029802322,5.039999961853027
1744304526.88,-2.380000114440918,-1.2599999904632568,3.640000104904175
1744304526.88,-3.2200000286102295,-1.9600000381469727,1.8899999856948853
1744304526.88,-4.130000114440918,-2.6600000858306885,0.6299999952316284
1744304526.88,-5.53000020980835,-3.3600001335144043,0
1744304526.88,-6.090000152587891,-3.569999933242798,-0.5600000023841858
1744304526.88,-5.809999942779541,-3.2899999618530273,-1.6100000143051147
1744304526.88,-5.460000038146973,-2.940000057220459,-2.450000047683716
1744304526.954,-5.179999828338623,-2.870000123977661,-2.7300000190734863
1744304526.954,-4.550000190734863,-2.309999942779541,-2.240000009536743
1744304526.954,-4.829999923706055,-1.4700000286102295,-2.0299999713897705
1744304526.954,-4.760000228881836,-0.14000000059604645,-1.9600000381469727
1744304526.954,-5.110000133514404,0.9800000190734863,-1.5399999618530273
1744304526.954,-5.53000020980835,2.0999999046325684,-1.0499999523162842
1744304526.954,-5.460000038146973,0.49000000953674316,-0.49000000953674316
1744304526.954,-5.949999809265137,1.399999976158142,-1.75
1744304527.028,-5.740000247955322,2.0299999713897705,-2.6600000858306885
1744304527.028,-5.740000247955322,1.6100000143051147,-2.380000114440918
1744304527.028,-5.670000076293945,2.380000114440918,-1.8200000524520874
1744304527.028,-6.300000190734863,2.0299999713897705,-0.9100000262260437
1744304527.028,-7.210000038146973,2.5899999141693115,-1.2599999904632568
1744304527.028,-6.720000267028809,2.380000114440918,-2.0299999713897705
1744304527.028,-6.720000267028809,1.9600000381469727,-2.0299999713897705
1744304527.028,-5.25,1.6100000143051147,-1.0499999523162842
1744304527.103,-4.059999942779541,0.8400000333786011,-0.5600000023841858
1744304527.103,-3.2899999618530273,-1.3300000429153442,-0.14000000059604645
1744304527.103,-3.7100000381469727,-0.9100000262260437,0.14000000059604645
1744304527.103,-4.550000190734863,-1.8200000524520874,1.0499999523162842
1744304527.103,-5.599999904632568,-2.5899999141693115,1.5399999618530273
1744304527.103,-6.159999847412109,-2.870000123977661,1.399999976158142
1744304527.103,-6.230000019073486,-3.990000009536743,1.190000057220459
1744304527.103,-5.740000247955322,-4.829999923706055,0.8400000333786011
1744304527.178,-3.7100000381469727,-5.110000133514404,0.21000000834465027
1744304527.178,-1.1200000047683716,-3.2899999618530273,-0.07000000029802322
1744304527.178,1.399999976158142,-2.1700000762939453,0.6299999952316284
1744304527.178,3.2200000286102295,-1.8899999856948853,1.1200000047683716
1744304527.178,4.199999809265137,-0.9100000262260437,1.1200000047683716
1744304527.178,4.269999980926514,-0.21000000834465027,1.2599999904632568
1744304527.178,4.480000019073486,0.42000001668930054,1.8200000524520874
1744304527.178,5.25,0.9800000190734863,2.1700000762939453
1744304527.252,5.25,2.0999999046325684,2.5899999141693115
1744304527.252,5.599999904632568,2.5899999141693115,3.2200000286102295
1744304527.252,5.460000038146973,3.5,3.7799999713897705
1744304527.252,4.829999923706055,3.9200000762939453,4.199999809265137
1744304527.252,4.269999980926514,3.990000009536743,4.690000057220459
1744304527.252,3.7100000381469727,3.7799999713897705,5.110000133514404
1744304527.252,3.009999990463257,4.130000114440918,5.110000133514404
1744304527.252,3.0799999237060547,4.199999809265137,4.829999923706055
1744304527.326,2.450000047683716,4.409999847412109,4.409999847412109
1744304527.326,1.8899999856948853,4.340000152587891,3.9200000762939453
1744304527.326,0.3499999940395355,3.8499999046325684,3.7100000381469727
1744304527.326,-1.0499999523162842,2.870000123977661,3.640000104904175
1744304527.326,-2.450000047683716,1.8899999856948853,3.7100000381469727
1744304527.326,-3.5,0.8400000333786011,3.5
1744304527.326,-3.3600001335144043,-0.21000000834465027,2.7300000190734863
1744304527.326,-3.2899999618530273,-1.4700000286102295,1.9600000381469727
1744304527.401,-4.619999885559082,-2.5199999809265137,0.5600000023841858
1744304527.401,-3.2899999618530273,-3.2899999618530273,-0.14000000059604645
1744304527.401,-2.309999942779541,-4.409999847412109,-1.1200000047683716
1744304527.401,-3.1500000953674316,-7.28000020980835,-3.0799999237060547
1744304527.401,-6.300000190734863,-9.800000190734863,-4.900000095367432
1744304527.401,-8.609999656677246,-10.079999923706055,-3.8499999046325684
1744304527.401,-7.210000038146973,-9.869999885559082,1.190000057220459
1744304527.401,-6.789999961853027,-11.760000228881836,5.880000114440918
1744304527.475,-6.789999961853027,-11.480000495910645,6.720000267028809
1744304527.475,-4.340000152587891,-9.9399995803833,4.480000019073486
1744304527.475,-1.3300000429153442,-8.119999885559082,-0.42000001668930054
1744304527.475,1.399999976158142,-6.720000267028809,-7.420000076293945
1744304527.475,0.42000001668930054,-5.389999866485596,-14.489999771118164
1744304527.475,0.2800000011920929,-5.460000038146973,-18.899999618530273
1744304527.475,-0.49000000953674316,-6.440000057220459,-18.6200008392334
1744304527.475,-1.399999976158142,-8.539999961853027,-14.84000015258789
1744304527.549,-1.8200000524520874,-11.270000457763672,-9.9399995803833
1744304527.549,-1.8899999856948853,-12.25,-4.760000228881836
1744304527.549,-1.2599999904632568,-11.899999618530273,-0.3499999940395355
1744304527.549,-0.9100000262260437,-11.199999809265137,1.9600000381469727
1744304527.549,0.9100000262260437,-10.569999694824219,1.5399999618530273
1744304527.549,0.9800000190734863,-9.730000495910645,-0.7699999809265137
1744304527.549,1.5399999618530273,-8.960000038146973,-3.2200000286102295
1744304527.549,2.6600000858306885,-8.470000267028809,-5.179999828338623
1744304527.623,1.6800000667572021,-8.1899995803833,-6.369999885559082
1744304527.623,0.21000000834465027,-8.329999923706055,-6.579999923706055
1744304527.623,-0.42000001668930054,-8.609999656677246,-5.949999809265137
1744304527.623,-0.2800000011920929,-9.029999732971191,-4.760000228881836
1744304527.623,-0.5600000023841858,-9.170000076293945,-3.640000104904175
1744304527.623,0.21000000834465027,-10.010000228881836,-3.009999990463257
1744304527.623,0.9100000262260437,-10.569999694824219,-3.0799999237060547
1744304527.623,1.3300000429153442,-11.0600004196167,-3.3600001335144043
1744304527.697,1.5399999618530273,-12.529999732971191,-3.569999933242798
1744304527.697,1.3300000429153442,-12.670000076293945,-3.7799999713897705
1744304527.697,1.6800000667572021,-9.730000495910645,-2.240000009536743
1744304527.697,-3.2899999618530273,-13.440000534057617,-4.480000019073486
1744304527.697,-0.2800000011920929,-16.3799991607666,-7.699999809265137
1744304527.697,3.640000104904175,-17.989999771118164,-9.029999732971191
1744304527.697,5.949999809265137,-19.25,-9.380000114440918
1744304527.697,5.949999809265137,-20.649999618530273,-9.65999984741211
1744304527.772,5.53000020980835,-21.700000762939453,-9.65999984741211
1744304527.772,5.389999866485596,-21.700000762939453,-8.960000038146973
1744304527.772,5.25,-20.3700008392334,-7.840000152587891
1744304527.772,4.340000152587891,-18.690000534057617,-6.929999828338623
1744304527.772,3.0799999237060547,-18.1299991607666,-6.510000228881836
1744304527.772,2.940000057220459,-18.059999465942383,-5.880000114440918
1744304527.772,2.6600000858306885,-17.850000381469727,-5.599999904632568
1744304527.772,3.0799999237060547,-17.5,-6.019999980926514
1744304527.846,4.130000114440918,-17.010000228881836,-6.510000228881836
1744304527.846,4.829999923706055,-16.729999542236328,-6.300000190734863
1744304527.846,4.059999942779541,-16.309999465942383,-6.369999885559082
1744304527.846,3.7100000381469727,-15.329999923706055,-6.789999961853027
1744304527.846,3.9200000762939453,-14.770000457763672,-7.28000020980835
1744304527.846,4.059999942779541,-14.5600004196167,-7.699999809265137
1744304527.846,4.269999980926514,-13.930000305175781,-7.420000076293945
1744304527.846,4.340000152587891,-13.230000495910645,-7.210000038146973
1744304527.92,3.640000104904175,-12.8100004196167,-6.789999961853027
1744304527.92,3.2899999618530273,-12.670000076293945,-6.159999847412109
1744304527.92,3.640000104904175,-11.34000015258789,-5.320000171661377
1744304527.92,4.96999979019165,-11.0600004196167,-4.690000057220459
1744304527.92,5.880000114440918,-11.270000457763672,-4.619999885559082
1744304527.92,6.019999980926514,-12.25,-5.320000171661377
1744304527.92,6.090000152587891,-10.779999732971191,-5.809999942779541
1744304527.92,7.070000171661377,-9.869999885559082,-5.809999942779541
1744304527.994,7.769999980926514,-10.010000228881836,-5.389999866485596
1744304527.994,7.980000019073486,-10.220000267028809,-5.389999866485596
1744304527.994,7.210000038146973,-9.730000495910645,-4.96999979019165
1744304527.994,6.369999885559082,-9.100000381469727,-4.059999942779541
1744304527.994,5.880000114440918,-10.220000267028809,-3.430000066757202
1744304527.994,5.599999904632568,-10.779999732971191,-3.569999933242798
1744304527.994,5.25,-9.239999771118164,-1.9600000381469727
1744304527.994,4.199999809265137,-8.1899995803833,-0.9100000262260437
1744304528.069,2.870000123977661,-7.980000019073486,-1.6800000667572021
1744304528.069,3.009999990463257,-8.260000228881836,-2.450000047683716
1744304528.069,3.430000066757202,-7.630000114440918,-2.6600000858306885
1744304528.069,3.0799999237060547,-6.650000095367432,-2.1700000762939453
1744304528.069,2.5899999141693115,-4.96999979019165,-1.6800000667572021
1744304528.069,1.4700000286102295,-3.7799999713897705,-1.6100000143051147
1744304528.069,0.14000000059604645,-2.0999999046325684,-1.5399999618530273
1744304528.069,-0.8400000333786011,-0.6299999952316284,-0.9100000262260437
1744304528.143,-1.6100000143051147,0.7699999809265137,0.14000000059604645
1744304528.143,-2.1700000762939453,1.4700000286102295,0.7699999809265137
1744304528.143,-2.799999952316284,2.6600000858306885,1.3300000429153442
1744304528.143,-3.3600001335144043,3.0799999237060547,1.5399999618530273
1744304528.143,-3.8499999046325684,3.2899999618530273,2.0299999713897705
1744304528.143,-4.130000114440918,3.7100000381469727,2.5199999809265137
1744304528.143,-5.179999828338623,3.7100000381469727,3.009999990463257
1744304528.143,-5.389999866485596,3.9200000762939453,3.990000009536743
1744304528.217,-6.369999885559082,3.7799999713897705,4.550000190734863
1744304528.217,-4.900000095367432,3.7799999713897705,3.990000009536743
1744304528.217,-5.389999866485596,3.009999990463257,2.940000057220459
1744304528.217,-5.25,1.8899999856948853,2.0999999046325684
1744304528.217,-3.9200000762939453,0.49000000953674316,1.1200000047683716
1744304528.217,-2.0999999046325684,-1.2599999904632568,0.07000000029802322
1744304528.217,-0.49000000953674316,-3.009999990463257,-0.9800000190734863
1744304528.217,1.4700000286102295,-4.690000057220459,-1.4700000286102295
1744304528.291,2.870000123977661,-6.230000019073486,-1.6100000143051147
1744304528.291,3.8499999046325684,-8.050000190734863,-2.0299999713897705
1744304528.291,4.199999809265137,-9.380000114440918,-2.0999999046325684
1744304528.291,3.8499999046325684,-10.220000267028809,-2.5199999809265137
1744304528.291,3.430000066757202,-10.359999656677246,-3.009999990463257
1744304528.291,3.640000104904175,-10.149999618530273,-3.2899999618530273
1744304528.291,3.9200000762939453,-9.730000495910645,-3.1500000953674316
1744304528.291,3.7799999713897705,-9.449999809265137,-2.5899999141693115
1744304528.365,3.2899999618530273,-9.170000076293945,-1.9600000381469727
1744304528.365,4.130000114440918,-9.100000381469727,-1.4700000286102295
1744304528.365,6.090000152587891,-9.65999984741211,-0.9100000262260437
1744304528.365,7.699999809265137,-10.289999961853027,-0.699999988079071
1744304528.365,9.65999984741211,-10.640000343322754,-0.42000001668930054
1744304528.365,11.970000267028809,-10.640000343322754,0.3499999940395355
1744304528.365,13.789999961853027,-10.430000305175781,0.7699999809265137
1744304528.365,13.230000495910645,-9.59000015258789,0.699999988079071
1744304528.44,12.039999961853027,-9.800000190734863,0.9100000262260437
1744304528.44,9.380000114440918,-10.779999732971191,1.8200000524520874
1744304528.44,5.809999942779541,-12.319999694824219,2.450000047683716
1744304528.44,2.5199999809265137,-13.369999885559082,2.5199999809265137
1744304528.44,0.49000000953674316,-13.369999885559082,2.5199999809265137
1744304528.44,-0.699999988079071,-13.15999984741211,2.5899999141693115
1744304528.44,-1.6800000667572021,-12.460000038146973,2.940000057220459
1744304528.44,-1.9600000381469727,-11.40999984741211,3.5
1744304528.514,-2.0999999046325684,-10.640000343322754,3.990000009536743
1744304528.514,-3.2899999618530273,-10.569999694824219,3.8499999046325684
1744304528.514,-4.199999809265137,-10.710000038146973,3.009999990463257
1744304528.514,-4.130000114440918,-9.869999885559082,2.0299999713897705
1744304528.514,-3.5,-9.029999732971191,1.1200000047683716
1744304528.514,-2.6600000858306885,-8.260000228881836,-0.42000001668930054
1744304528.514,-1.399999976158142,-7.699999809265137,-1.8899999856948853
1744304528.514,-0.49000000953674316,-7.840000152587891,-3.7799999713897705
1744304528.588,0.07000000029802322,-7.840000152587891,-5.389999866485596
1744304528.588,0.2800000011920929,-8.399999618530273,-6.090000152587891
1744304528.588,0.699999988079071,-9.730000495910645,-6.230000019073486
1744304528.588,0.9100000262260437,-10.640000343322754,-6.019999980926514
1744304528.588,1.190000057220459,-11.550000190734863,-5.949999809265137
1744304528.588,1.4700000286102295,-12.319999694824219,-5.809999942779541
1744304528.588,1.2599999904632568,-13.09000015258789,-5.25
1744304528.588,1.6100000143051147,-12.670000076293945,-4.059999942779541
1744304528.662,1.6100000143051147,-13.720000267028809,-2.6600000858306885
1744304528.662,1.1200000047683716,-14.140000343322754,-1.75
1744304528.662,1.4700000286102295,-13.789999961853027,-1.190000057220459
1744304528.662,2.450000047683716,-13.300000190734863,-0.699999988079071
1744304528.662,3.430000066757202,-12.670000076293945,-0.49000000953674316
1744304528.662,3.990000009536743,-12.739999771118164,-1.6100000143051147
1744304528.662,2.5199999809265137,-11.619999885559082,-1.5399999618530273
1744304528.662,1.6800000667572021,-9.730000495910645,-1.4700000286102295
1744304528.736,0.6299999952316284,-8.1899995803833,-1.1200000047683716
1744304528.736,-0.699999988079071,-6.789999961853027,-0.6299999952316284
1744304528.736,-2.6600000858306885,-5.179999828338623,-0.14000000059604645
1744304528.736,-4.269999980926514,-3.9200000762939453,0.3499999940395355
1744304528.736,-5.809999942779541,-2.799999952316284,0.6299999952316284
1744304528.736,-6.579999923706055,-1.399999976158142,0.42000001668930054
1744304528.736,-6.510000228881836,0.07000000029802322,0.14000000059604645
1744304528.736,-5.389999866485596,2.1700000762939453,0.42000001668930054
1744304528.811,-3.7799999713897705,3.430000066757202,1.75
1744304528.811,-1.2599999904632568,3.990000009536743,2.940000057220459
1744304528.811,-0.21000000834465027,4.550000190734863,3.569999933242798
1744304528.811,-0.3499999940395355,4.690000057220459,3.8499999046325684
1744304528.811,-1.8200000524520874,4.269999980926514,3.569999933242798
1744304528.811,-4.130000114440918,3.569999933242798,3.2200000286102295
1744304528.811,-4.829999923706055,2.870000123977661,3.009999990463257
1744304528.811,-5.179999828338623,1.8200000524520874,2.6600000858306885
1744304528.885,-5.25,0.8400000333786011,2.870000123977661
1744304528.885,-4.900000095367432,0.699999988079071,3.2200000286102295
1744304528.885,-5.039999961853027,0.9100000262260437,3.569999933242798
1744304528.885,-5.53000020980835,0.2800000011920929,3.9200000762939453
1744304528.885,-5.039999961853027,-0.49000000953674316,3.5
1744304528.885,-4.550000190734863,-1.0499999523162842,2.870000123977661
1744304528.885,-4.619999885559082,-1.5399999618530273,1.75
1744304528.885,-5.110000133514404,-2.6600000858306885,0.7699999809265137
1744304528.959,-5.599999904632568,-3.7799999713897705,0.21000000834465027
1744304528.959,-5.809999942779541,-4.480000019073486,-0.5600000023841858
1744304528.959,-6.090000152587891,-5.25,-1.2599999904632568
1744304528.959,-6.159999847412109,-5.53000020980835,-1.4700000286102295
1744304528.959,-5.320000171661377,-4.829999923706055,-0.42000001668930054
1744304528.959,-5.809999942779541,-6.440000057220459,-0.49000000953674316
1744304528.959,-5.949999809265137,-6.369999885559082,-0.49000000953674316
1744304528.959,-6.440000057220459,-6.510000228881836,0.3499999940395355
1744304529.033,-6.720000267028809,-7,0.42000001668930054
1744304529.033,-6.510000228881836,-6.300000190734863,1.1200000047683716
1744304529.033,-5.880000114440918,-5.179999828338623,2.380000114440918
1744304529.033,-4.96999979019165,-4.550000190734863,3.009999990463257
1744304529.033,-3.7799999713897705,-4.829999923706055,3.0799999237060547
1744304529.033,-2.5199999809265137,-4.480000019073486,3.2899999618530273
1744304529.033,-1.6800000667572021,-3.8499999046325684,3.569999933242798
1744304529.033,-2.240000009536743,-3.5,3.9200000762939453
1744304529.108,-2.450000047683716,-3.640000104904175,3.1500000953674316
1744304529.108,-3.640000104904175,-3.7100000381469727,1.9600000381469727
1744304529.108,-3.8499999046325684,-3.640000104904175,0.42000001668930054
1744304529.108,-3.2899999618530273,-3.990000009536743,-1.6100000143051147
1744304529.108,-3.3600001335144043,-4.199999809265137,-1.8200000524520874
1744304529.108,-0.7699999809265137,-3.569999933242798,-2.309999942779541
1744304529.108,0.2800000011920929,-3.1500000953674316,-3.009999990463257
1744304529.108,0.07000000029802322,-2.940000057220459,-2.6600000858306885
1744304529.182,0.2800000011920929,-1.6100000143051147,-2.799999952316284
1744304529.182,-1.2599999904632568,0,-3.1500000953674316
1744304529.182,-2.0999999046325684,1.2599999904632568,-2.870000123977661
1744304529.182,-0.5600000023841858,2.940000057220459,-0.9100000262260437
1744304529.182,-0.3499999940395355,3.7100000381469727,1.6800000667572021
1744304529.182,-1.3300000429153442,4.340000152587891,4.480000019073486
1744304529.182,-2.5199999809265137,4.829999923706055,7.769999980926514
1744304529.182,-3.9200000762939453,5.53000020980835,10.989999771118164
1744304529.256,-4.690000057220459,6.789999961853027,13.579999923706055
1744304529.256,-4.96999979019165,7.769999980926514,15.050000190734863
1744304529.256,-4.900000095367432,8.890000343322754,15.680000305175781
1744304529.256,-4.690000057220459,9.65999984741211,15.890000343322754
1744304529.256,-4.130000114440918,9.730000495910645,15.539999961853027
1744304529.256,-4.550000190734863,7.909999847412109,15.119999885559082
1744304529.256,-3.990000009536743,7.420000076293945,14.90999984741211
1744304529.256,-2.870000123977661,7.769999980926514,13.930000305175781
1744304529.33,-1.5399999618530273,7.909999847412109,12.529999732971191
1744304529.33,0.699999988079071,7.559999942779541,10.920000076293945
1744304529.33,1.5399999618530273,6.860000133514404,10.779999732971191
1744304529.33,3.640000104904175,6.019999980926514,10.640000343322754
1744304529.33,5.809999942779541,4.96999979019165,11.199999809265137
1744304529.33,6.579999923706055,4.130000114440918,11.6899995803833
1744304529.33,5.949999809265137,3.2899999618530273,11.480000495910645
1744304529.33,5.110000133514404,1.0499999523162842,9.9399995803833
1744304529.404,2.940000057220459,0.6299999952316284,6.019999980926514
1744304529.404,0.42000001668930054,-0.6299999952316284,2.309999942779541
1744304529.404,0.42000001668930054,-0.49000000953674316,-0.9800000190734863
1744304529.404,0.9100000262260437,-0.699999988079071,-3.7799999713897705
1744304529.404,2.5199999809265137,-0.8400000333786011,-5.670000076293945
1744304529.404,4.829999923706055,-0.2800000011920929,-6.929999828338623
1744304529.404,5.670000076293945,-1.1200000047683716,-7.769999980926514
1744304529.404,5.599999904632568,-2.6600000858306885,-8.680000305175781
1744304529.479,5.599999904632568,-4.130000114440918,-8.539999961853027
1744304529.479,5.880000114440918,-5.25,-7.840000152587891
1744304529.479,7.28000020980835,-6.230000019073486,-7.210000038146973
1744304529.479,7.909999847412109,-7.210000038146973,-6.650000095367432
1744304529.479,9.170000076293945,-7.559999942779541,-5.179999828338623
1744304529.479,10.989999771118164,-7.490000247955322,-2.450000047683716
1744304529.479,12.670000076293945,-7.840000152587891,0.07000000029802322
1744304529.479,14.279999732971191,-7.769999980926514,1.8200000524520874
1744304529.553,14.210000038146973,-7.349999904632568,3.7799999713897705
1744304529.553,14.350000381469727,-7.420000076293945,4.619999885559082
1744304529.553,14.069999694824219,-7.980000019073486,4.690000057220459
1744304529.553,12.390000343322754,-7.139999866485596,4.690000057220459
1744304529.553,10.920000076293945,-6.860000133514404,5.670000076293945
1744304529.553,10.430000305175781,-5.460000038146973,5.809999942779541
1744304529.553,10.5,-4.550000190734863,5.039999961853027
1744304529.553,9.520000457763672,-3.3600001335144043,4.760000228881836
1744304529.627,7.840000152587891,-1.8200000524520874,4.480000019073486
1744304529.627,6.369999885559082,-0.49000000953674316,4.409999847412109
1744304529.627,4.96999979019165,-0.3499999940395355,4.96999979019165
1744304529.627,3.8499999046325684,-0.42000001668930054,5.949999809265137
1744304529.627,3.2200000286102295,-1.1200000047683716,7.070000171661377
1744304529.627,3.3600001335144043,-1.9600000381469727,7.490000247955322
1744304529.627,3.5,-3.3600001335144043,7.769999980926514
1744304529.627,3.1500000953674316,-4.760000228881836,7.28000020980835
1744304529.701,3.5,-4.96999979019165,6.159999847412109
1744304529.701,4.760000228881836,-5.110000133514404,4.829999923706055
1744304529.701,6.440000057220459,-5.179999828338623,3.569999933242798
1744304529.701,7.559999942779541,-5.25,2.6600000858306885
1744304529.701,9.869999885559082,-5.320000171661377,1.5399999618530273
1744304529.701,10.710000038146973,-5.809999942779541,0.42000001668930054
1744304529.701,12.390000343322754,-6.789999961853027,-0.5600000023841858
1744304529.701,12.390000343322754,-7.349999904632568,-1.1200000047683716
1744304529.776,13.230000495910645,-7.630000114440918,-1.4700000286102295
1744304529.776,14.5600004196167,-8.329999923706055,-1.6100000143051147
1744304529.776,12.880000114440918,-8.680000305175781,-1.8899999856948853
1744304529.776,11.6899995803833,-9.029999732971191,-1.9600000381469727
1744304529.776,9.59000015258789,-10.359999656677246,-0.9100000262260437
1744304529.776,8.260000228881836,-11.34000015258789,1.9600000381469727
1744304529.776,6.929999828338623,-11.6899995803833,5.179999828338623
1744304529.776,6.579999923706055,-12.670000076293945,7.980000019073486
1744304529.85,6.579999923706055,-13.579999923706055,10.989999771118164
1744304529.85,4.900000095367432,-14.84000015258789,13.440000534057617
1744304529.85,6.860000133514404,-15.819999694824219,15.190000534057617
1744304529.85,5.53000020980835,-16.8700008392334,15.960000038146973
1744304529.85,7.28000020980835,-18.059999465942383,15.260000228881836
1744304529.85,7,-17.850000381469727,13.230000495910645
1744304529.85,3.7799999713897705,-17.5,9.800000190734863
1744304529.85,1.5399999618530273,-17.780000686645508,6.510000228881836
1744304529.924,-0.699999988079071,-18.34000015258789,2.6600000858306885
1744304529.924,-2.6600000858306885,-19.040000915527344,-1.75
1744304529.924,-3.430000066757202,-20.299999237060547,-6.789999961853027
1744304529.924,-3.0799999237060547,-21.21000099182129,-13.020000457763672
1744304529.924,-2.5899999141693115,-22.399999618530273,-20.15999984741211
1744304529.924,-2.309999942779541,-23.940000534057617,-27.020000457763672
1744304529.924,-2.450000047683716,-25.059999465942383,-31.71000099182129
1744304529.924,-4.690000057220459,-26.25,-34.09000015258789
1744304529.998,-6.510000228881836,-26.809999465942383,-34.22999954223633
1744304529.998,-8.329999923706055,-28.420000076293945,-33.38999938964844
1744304529.998,-9.59000015258789,-28.630001068115234,-32.27000045776367
1744304529.998,-9.730000495910645,-28.700000762939453,-31.010000228881836
1744304529.998,-9.100000381469727,-28.770000457763672,-29.469999313354492
1744304529.998,-7.909999847412109,-28.770000457763672,-27.299999237060547
1744304529.998,-8.119999885559082,-28.770000457763672,-25.200000762939453
1744304529.998,-9.100000381469727,-29.049999237060547,-23.450000762939453
1744304530.072,-9.65999984741211,-29.190000534057617,-21.280000686645508
1744304530.072,-10.149999618530273,-29.610000610351562,-18.969999313354492
1744304530.072,-10.430000305175781,-30.380001068115234,-16.450000762939453
1744304530.072,-10.430000305175781,-31.219999313354492,-13.930000305175781
1744304530.072,-9.520000457763672,-31.989999771118164,-12.109999656677246
1744304530.072,-8.1899995803833,-32.27000045776367,-11.130000114440918
1744304530.072,-6.510000228881836,-32.34000015258789,-10.149999618530273
1744304530.072,-5.460000038146973,-32.20000076293945,-10.010000228881836
1744304530.147,-4.760000228881836,-32.27000045776367,-10.779999732971191
1744304530.147,-2.450000047683716,-31.850000381469727,-11.550000190734863
1744304530.147,-1.3300000429153442,-30.8700008392334,-12.670000076293945
1744304530.147,-2.380000114440918,-30.450000762939453,-14.069999694824219
1744304530.147,-2.309999942779541,-29.190000534057617,-14.069999694824219
1744304530.147,-1.8200000524520874,-28.350000381469727,-14.140000343322754
1744304530.147,-2.450000047683716,-28.21000099182129,-14.140000343322754
1744304530.147,-2.5199999809265137,-29.1200008392334,-12.949999809265137
1744304530.221,-3.8499999046325684,-28.489999771118164,-12.319999694824219
1744304530.221,-5.320000171661377,-27.860000610351562,-12.529999732971191
1744304530.221,-5.039999961853027,-27.719999313354492,-12.880000114440918
1744304530.221,-4.550000190734863,-27.3700008392334,-12.25
1744304530.221,-3.569999933242798,-27.09000015258789,-11.199999809265137
1744304530.221,-3.7100000381469727,-27.649999618530273,-10.149999618530273
1744304530.221,-2.5199999809265137,-28.280000686645508,-9.65999984741211
1744304530.221,-3.009999990463257,-27.579999923706055,-10.220000267028809
1744304530.295,-4.340000152587891,-26.950000762939453,-11.619999885559082
1744304530.295,-6.090000152587891,-27.229999542236328,-13.579999923706055
1744304530.295,-4.409999847412109,-28,-15.470000267028809
1744304530.295,-1.3300000429153442,-30.030000686645508,-17.010000228881836
1744304530.295,3.3600001335144043,-32.689998626708984,-17.079999923706055
1744304530.295,8.819999694824219,-34.86000061035156,-15.890000343322754
1744304530.295,12.949999809265137,-36.61000061035156,-14
1744304530.295,13.859999656677246,-38.290000915527344,-11.899999618530273
1744304530.369,10.010000228881836,-39.900001525878906,-10.359999656677246
1744304530.369,3.430000066757202,-42.06999969482422,-9.59000015258789
1744304530.369,-3.5,-45.290000915527344,-9.170000076293945
1744304530.369,-7.769999980926514,-48.650001525878906,-9.170000076293945
1744304530.369,-8.399999618530273,-51.869998931884766,-8.819999694824219
1744304530.369,-5.880000114440918,-53.619998931884766,-7.630000114440918
1744304530.369,-1.1200000047683716,-55.29999923706055,-6.369999885559082
1744304530.369,5.320000171661377,-56.560001373291016,-6.019999980926514
1744304530.444,14.279999732971191,-57.88999938964844,-7.070000171661377
1744304530.444,21.350000381469727,-58.380001068115234,-9.170000076293945
1744304530.444,31.850000381469727,-57.26000213623047,-12.039999961853027
1744304530.444,37.17000198364258,-54.38999938964844,-14.140000343322754
1744304530.444,38.5,-51.099998474121094,-14
1744304530.444,36.68000030517578,-46.40999984741211,-12.039999961853027
1744304530.444,33.95000076293945,-42.06999969482422,-10.149999618530273
1744304530.444,31.71000099182129,-39.47999954223633,-8.470000267028809
1744304530.518,31.079999923706055,-40.459999084472656,-7.28000020980835
1744304530.518,28.84000015258789,-40.599998474121094,-7.28000020980835
1744304530.518,17.43000030517578,-34.93000030517578,-9.730000495910645
1744304530.518,4.760000228881836,-17.71000099182129,-17.079999923706055
1744304530.518,-8.890000343322754,-8.050000190734863,-30.450000762939453
1744304530.518,2.1700000762939453,5.320000171661377,-46.54999923706055
1744304530.518,1.9600000381469727,25.690000534057617,-66.91999816894531
1744304530.518,-18.270000457763672,38.9900016784668,-79.87000274658203
1744304530.592,-9.59000015258789,49.90999984741211,-84
1744304530.592,-0.8400000333786011,40.18000030517578,-83.6500015258789
1744304530.592,0.49000000953674316,33.7400016784668,-71.68000030517578
1744304530.592,3.990000009536743,24.920000076293945,-48.93000030517578
1744304530.592,2.870000123977661,15.329999923706055,-25.760000228881836
1744304530.592,5.880000114440918,11.0600004196167,-2.6600000858306885
1744304530.592,6.650000095367432,10.850000381469727,16.729999542236328
1744304530.592,5.599999904632568,16.520000457763672,26.31999969482422
1744304530.666,7.559999942779541,24.149999618530273,25.40999984741211
1744304530.666,14.069999694824219,24.639999389648438,15.539999961853027
1744304530.666,26.110000610351562,14.84000015258789,2.1700000762939453
1744304530.666,34.5099983215332,-0.8400000333786011,-7.559999942779541
1744304530.666,31.780000686645508,-13.020000457763672,-7.559999942779541
1744304530.666,25.6200008392334,-24.5,-3.430000066757202
1744304530.666,19.040000915527344,-31.56999969482422,3.009999990463257
1744304530.666,10.710000038146973,-34.720001220703125,8.470000267028809
1744304530.74,5.389999866485596,-37.380001068115234,11.619999885559082
1744304530.74,2.799999952316284,-37.310001373291016,14.770000457763672
1744304530.74,-1.2599999904632568,-35.560001373291016,16.520000457763672
1744304530.74,-1.5399999618530273,-33.040000915527344,18.760000228881836
1744304530.74,-0.5600000023841858,-29.329999923706055,20.3700008392334
1744304530.74,1.2599999904632568,-26.040000915527344,18.829999923706055
1744304530.74,1.9600000381469727,-22.540000915527344,13.510000228881836
1744304530.74,0.699999988079071,-19.31999969482422,7.28000020980835
1744304530.815,-2.940000057220459,-16.59000015258789,2.1700000762939453
1744304530.815,-7.070000171661377,-14.210000038146973,-1.75
1744304530.815,-10.779999732971191,-10.989999771118164,-4.059999942779541
1744304530.815,-14.630000114440918,-8.680000305175781,-5.949999809265137
1744304530.815,-16.59000015258789,-7.210000038146973,-7.210000038146973
1744304530.815,-16.799999237060547,-7.28000020980835,-8.75
1744304530.815,-16.729999542236328,-7.699999809265137,-10.149999618530273
1744304530.815,-15.399999618530273,-8.470000267028809,-10.850000381469727
1744304530.889,-13.369999885559082,-9.380000114440918,-11.0600004196167
1744304530.889,-11.829999923706055,-10.779999732971191,-11.0600004196167
1744304530.889,-10.640000343322754,-12.460000038146973,-11.34000015258789
1744304530.889,-9.730000495910645,-14.279999732971191,-12.670000076293945
1744304530.889,-7.909999847412109,-15.190000534057617,-15.260000228881836
1744304530.889,-6.090000152587891,-15.050000190734863,-17.5
1744304530.889,-5.179999828338623,-14.279999732971191,-19.25
1744304530.889,-2.940000057220459,-12.739999771118164,-20.790000915527344
1744304530.963,-0.07000000029802322,-10.220000267028809,-21.770000457763672
1744304530.963,1.6100000143051147,-7.420000076293945,-22.469999313354492
1744304530.963,2.6600000858306885,-5.039999961853027,-22.81999969482422
1744304530.963,3.009999990463257,-3.2200000286102295,-22.889999389648438
1744304530.963,3.0799999237060547,-1.8899999856948853,-22.260000228881836
1744304530.963,3.1500000953674316,-1.5399999618530273,-21.06999969482422
1744304530.963,2.799999952316284,-1.6100000143051147,-19.25
1744304530.963,2.0999999046325684,-2.0299999713897705,-17.43000030517578
1744304531.037,0.42000001668930054,-2.5199999809265137,-15.960000038146973
1744304531.037,-0.6299999952316284,-2.380000114440918,-14.489999771118164
1744304531.037,-0.2800000011920929,-2.1700000762939453,-11.6899995803833
1744304531.037,1.4700000286102295,-3.640000104904175,-8.050000190734863
1744304531.037,3.569999933242798,-4.829999923706055,-3.640000104904175
1744304531.037,7.630000114440918,-5.110000133514404,0.6299999952316284
1744304531.037,12.949999809265137,-4.96999979019165,4.199999809265137
1744304531.037,16.729999542236328,-4.269999980926514,7.630000114440918
1744304531.111,20.510000228881836,-2.940000057220459,10.430000305175781
1744304531.111,22.260000228881836,-0.42000001668930054,11.34000015258789
1744304531.111,23.450000762939453,-0.14000000059604645,10.430000305175781
1744304531.111,20.09000015258789,-6.860000133514404,10.850000381469727
1744304531.111,12.25,-8.539999961853027,17.5
1744304531.111,16.59000015258789,-8.1899995803833,26.46000099182129
1744304531.111,23.799999237060547,-12.529999732971191,32.900001525878906
1744304531.111,25.899999618530273,-18.760000228881836,36.2599983215332
1744304531.186,25.690000534057617,-26.040000915527344,38.290000915527344
1744304531.186,22.889999389648438,-31.56999969482422,40.459999084472656
1744304531.186,23.3799991607666,-32.060001373291016,41.58000183105469
1744304531.186,27.229999542236328,-29.68000030517578,43.75
1744304531.186,27.860000610351562,-25.690000534057617,44.310001373291016
1744304531.186,24.010000228881836,-19.809999465942383,38.36000061035156
1744304531.186,17.639999389648438,-12.039999961853027,29.399999618530273
1744304531.186,12.109999656677246,-5.949999809265137,20.719999313354492
1744304531.26,7.559999942779541,-1.9600000381469727,16.8700008392334
1744304531.26,2.870000123977661,0.5600000023841858,17.56999969482422
1744304531.26,-2.5199999809265137,1.8200000524520874,21.770000457763672
1744304531.26,-6.019999980926514,2.0299999713897705,27.3700008392334
1744304531.26,-7.840000152587891,1.399999976158142,33.880001068115234
1744304531.26,-13.369999885559082,0.2800000011920929,39.060001373291016
1744304531.26,-15.960000038146973,-0.49000000953674316,42.77000045776367
1744304531.26,-16.8700008392334,-0.699999988079071,43.61000061035156
1744304531.334,-11.970000267028809,0.14000000059604645,42.70000076293945
1744304531.334,-5.53000020980835,0.3499999940395355,37.099998474121094
1744304531.334,4.059999942779541,0.9800000190734863,28.630001068115234
1744304531.334,9.65999984741211,1.5399999618530273,20.649999618530273
1744304531.334,11.270000457763672,0.6299999952316284,11.760000228881836
1744304531.334,13.09000015258789,-0.07000000029802322,4.409999847412109
1744304531.334,10.5,-1.9600000381469727,-2.5199999809265137
1744304531.334,9.239999771118164,-4.199999809265137,-7.070000171661377
1744304531.408,6.860000133514404,-7.699999809265137,-10.430000305175781
1744304531.408,3.0799999237060547,-11.0600004196167,-11.619999885559082
1744304531.408,-1.0499999523162842,-14.140000343322754,-9.65999984741211
1744304531.408,-0.21000000834465027,-17.290000915527344,-7.909999847412109
1744304531.408,-5.039999961853027,-19.530000686645508,-6.929999828338623
1744304531.408,-8.539999961853027,-21.84000015258789,-6.650000095367432
1744304531.408,-6.300000190734863,-22.96000099182129,-6.860000133514404
1744304531.408,-4.690000057220459,-23.030000686645508,-6.300000190734863
1744304531.483,-2.7300000190734863,-22.68000030517578,-5.880000114440918
1744304531.483,-0.6299999952316284,-21.700000762939453,-5.53000020980835
1744304531.483,0.42000001668930054,-19.8799991607666,-5.320000171661377
1744304531.483,3.009999990463257,-17.71000099182129,-5.039999961853027
1744304531.483,6.019999980926514,-14.84000015258789,-3.640000104904175
1744304531.483,7,-12.109999656677246,-2.0299999713897705
1744304531.483,6.720000267028809,-9.520000457763672,-0.9100000262260437
1744304531.483,7,-7.699999809265137,-0.07000000029802322
1744304531.557,6.860000133514404,-6.019999980926514,-0.07000000029802322
1744304531.557,5.740000247955322,-4.409999847412109,-1.1200000047683716
1744304531.557,4.199999809265137,-2.940000057220459,-2.870000123977661
1744304531.557,2.870000123977661,-2.0999999046325684,-4.269999980926514
1744304531.557,2.1700000762939453,-2.1700000762939453,-5.809999942779541
1744304531.557,1.190000057220459,-2.450000047683716,-6.789999961853027
1744304531.557,0.42000001668930054,-2.799999952316284,-7.28000020980835
1744304531.557,-0.699999988079071,-3.2200000286102295,-7.559999942779541
1744304531.631,-1.8200000524520874,-3.990000009536743,-8.050000190734863
1744304531.631,-2.7300000190734863,-4.619999885559082,-8.680000305175781
1744304531.631,-2.799999952316284,-5.389999866485596,-8.890000343322754
1744304531.631,-3.0799999237060547,-6.720000267028809,-9.170000076293945
1744304531.631,-3.569999933242798,-7.840000152587891,-9.380000114440918
1744304531.631,-4.269999980926514,-8.470000267028809,-9.3100004196167
1744304531.631,-4.480000019073486,-8.1899995803833,-9.100000381469727
1744304531.631,-7.28000020980835,-8.399999618530273,-8.470000267028809
1744304531.705,-8.819999694824219,-8.260000228881836,-7.070000171661377
1744304531.705,-9.59000015258789,-8.1899995803833,-5.110000133514404
1744304531.705,-10.5,-7.840000152587891,-2.6600000858306885
1744304531.705,-11.480000495910645,-7.070000171661377,0.21000000834465027
1744304531.705,-12.880000114440918,-5.599999904632568,3.0799999237060547
1744304531.705,-14.489999771118164,-3.7799999713897705,5.53000020980835
1744304531.705,-17.43000030517578,-2.309999942779541,7.699999809265137
1744304531.705,-19.600000381469727,-0.9100000262260437,9.65999984741211
1744304531.779,-20.649999618530273,0.49000000953674316,11.40999984741211
1744304531.779,-21.139999389648438,1.0499999523162842,12.739999771118164
1744304531.779,-21.979999542236328,1.1200000047683716,12.670000076293945
1744304531.779,-21.979999542236328,1.1200000047683716,11.550000190734863
1744304531.779,-23.030000686645508,0.699999988079071,10.079999923706055
1744304531.779,-22.68000030517578,-0.3499999940395355,9.100000381469727
1744304531.779,-22.469999313354492,-0.9800000190734863,8.960000038146973
1744304531.779,-22.1200008392334,-0.9100000262260437,9.239999771118164
1744304531.854,-20.860000610351562,-0.2800000011920929,9.65999984741211
1744304531.854,-18.760000228881836,-0.21000000834465027,9.800000190734863
1744304531.854,-15.819999694824219,-0.9800000190734863,9.100000381469727
1744304531.854,-13.09000015258789,-2.7300000190734863,7.559999942779541
1744304531.854,-10.569999694824219,-4.900000095367432,5.389999866485596
1744304531.854,-8.680000305175781,-7.28000020980835,2.799999952316284
1744304531.854,-7.139999866485596,-10.079999923706055,-0.49000000953674316
1744304531.854,-5.25,-13.369999885559082,-3.569999933242798
1744304531.928,-3.009999990463257,-16.729999542236328,-5.460000038146973
1744304531.928,-1.3300000429153442,-19.530000686645508,-6.789999961853027
1744304531.928,-0.699999988079071,-19.809999465942383,-8.050000190734863
1744304531.928,-9.520000457763672,-12.039999961853027,-9.65999984741211
1744304531.928,-9.029999732971191,-0.6299999952316284,-14.5600004196167
1744304531.928,-0.2800000011920929,3.2899999618530273,-22.1200008392334
1744304531.928,8.609999656677246,1.0499999523162842,-27.719999313354492
1744304531.928,15.470000267028809,7.840000152587891,-31.360000610351562
1744304532.002,13.720000267028809,19.040000915527344,-34.09000015258789
1744304532.002,10.779999732971191,29.610000610351562,-35.84000015258789
1744304532.002,7.490000247955322,33.38999938964844,-36.2599983215332
1744304532.002,11.550000190734863,32.060001373291016,-33.18000030517578
1744304532.002,18.760000228881836,32.20000076293945,-30.729999542236328
1744304532.002,19.46000099182129,30.59000015258789,-29.889999389648438
1744304532.002,14.699999809265137,26.670000076293945,-27.649999618530273
1744304532.002,11.34000015258789,23.729999542236328,-22.81999969482422
1744304532.076,10.220000267028809,21.700000762939453,-17.290000915527344
1744304532.076,9.3100004196167,18.829999923706055,-12.109999656677246
1744304532.076,5.599999904632568,15.190000534057617,-8.399999618530273
1744304532.076,1.1200000047683716,11.199999809265137,-6.650000095367432
1744304532.076,-1.3300000429153442,9.3100004196167,-7
1744304532.076,-3.2200000286102295,8.399999618530273,-9.869999885559082
1744304532.076,-3.640000104904175,7.980000019073486,-14.699999809265137
1744304532.076,-3.1500000953674316,7.909999847412109,-20.09000015258789
1744304532.151,-3.2899999618530273,8.470000267028809,-25.549999237060547
1744304532.151,-3.569999933242798,8.960000038146973,-30.65999984741211
1744304532.151,-3.7100000381469727,9.730000495910645,-34.86000061035156
1744304532.151,-5.25,10.289999961853027,-38.150001525878906
1744304532.151,-7.490000247955322,9.520000457763672,-40.18000030517578
1744304532.151,-9.65999984741211,8.539999961853027,-42.06999969482422
1744304532.151,-5.320000171661377,6.019999980926514,-42.77000045776367
1744304532.151,-4.480000019073486,3.640000104904175,-41.09000015258789
1744304532.225,-1.9600000381469727,3.2200000286102295,-35.84000015258789
1744304532.225,5.880000114440918,2.940000057220459,-27.860000610351562
1744304532.225,8.819999694824219,2.1700000762939453,-17.989999771118164
1744304532.225,8.680000305175781,0.5600000023841858,-8.260000228881836
1744304532.225,8.890000343322754,0,0.5600000023841858
1744304532.225,9.65999984741211,0.3499999940395355,8.470000267028809
1744304532.225,11.270000457763672,1.5399999618530273,14.5600004196167
1744304532.225,11.899999618530273,3.7799999713897705,18.969999313354492
1744304532.299,11.970000267028809,6.929999828338623,22.1200008392334
1744304532.299,11.970000267028809,10.079999923706055,23.940000534057617
1744304532.299,12.180000305175781,13.649999618530273,25.760000228881836
1744304532.299,13.020000457763672,16.729999542236328,26.25
1744304532.299,13.15999984741211,18.6200008392334,26.110000610351562
1744304532.299,12.949999809265137,20.790000915527344,26.110000610351562
1744304532.299,11.970000267028809,22.610000610351562,24.639999389648438
1744304532.299,12.109999656677246,24.43000030517578,22.260000228881836
1744304532.373,11.0600004196167,26.31999969482422,20.860000610351562
1744304532.373,8.470000267028809,27.93000030517578,20.440000534057617
1744304532.373,6.230000019073486,28.979999542236328,19.389999389648438
1744304532.373,3.9200000762939453,29.889999389648438,18.059999465942383
1744304532.373,3.640000104904175,30.239999771118164,15.890000343322754
1744304532.373,4.269999980926514,30.030000686645508,12.949999809265137
1744304532.373,3.8499999046325684,30.030000686645508,10.920000076293945
1744304532.373,4.059999942779541,29.96000099182129,9.800000190734863
1744304532.447,2.1700000762939453,29.399999618530273,8.960000038146973
1744304532.447,-0.21000000834465027,28.489999771118164,8.119999885559082
1744304532.447,-3.1500000953674316,28.139999389648438,8.260000228881836
1744304532.447,-5.25,27.790000915527344,9.029999732971191
1744304532.447,-6.929999828338623,27.860000610351562,9.869999885559082
1744304532.447,-7.630000114440918,28.350000381469727,10.289999961853027
1744304532.447,-6.789999961853027,29.540000915527344,10.779999732971191
1744304532.447,-8.119999885559082,31.290000915527344,11.0600004196167
1744304532.522,-9.029999732971191,33.31999969482422,11.619999885559082
1744304532.522,-10.079999923706055,34.58000183105469,11.829999923706055
1744304532.522,-10.430000305175781,35.13999938964844,11.829999923706055
1744304532.522,-10.149999618530273,35.42000198364258,11.760000228881836
1744304532.522,-10.5,35.42000198364258,11.970000267028809
1744304532.522,-11.199999809265137,35.13999938964844,12.25
1744304532.522,-11.550000190734863,34.22999954223633,12.25
1744304532.522,-11.6899995803833,33.040000915527344,11.760000228881836
1744304532.596,-11.550000190734863,31.780000686645508,11.270000457763672
1744304532.596,-11.619999885559082,30.450000762939453,10.640000343322754
1744304532.596,-10.989999771118164,28.700000762939453,9.869999885559082
1744304532.596,-10.569999694824219,27.020000457763672,9.170000076293945
1744304532.596,-10.149999618530273,25.270000457763672,8.399999618530273
1744304532.596,-10.569999694824219,23.59000015258789,7.980000019073486
1744304532.596,-11.480000495910645,21.6299991607666,7.420000076293945
1744304532.596,-11.970000267028809,19.110000610351562,6.860000133514404
1744304532.67,-12.039999961853027,17.5,5.880000114440918
1744304532.67,-11.199999809265137,16.8700008392334,4.690000057220459
1744304532.67,-10.220000267028809,16.100000381469727,3.569999933242798
1744304532.67,-9.380000114440918,15.680000305175781,2.799999952316284
1744304532.67,-9.100000381469727,15.470000267028809,2.7300000190734863
1744304532.67,-9.520000457763672,15.399999618530273,2.940000057220459
1744304532.67,-9.029999732971191,15.539999961853027,3.2200000286102295
1744304532.67,-8.609999656677246,15.190000534057617,3.7799999713897705
1744304532.744,-8.399999618530273,14.770000457763672,4.130000114440918
1744304532.744,-8.75,14.489999771118164,3.8499999046325684
1744304532.744,-8.890000343322754,14.420000076293945,3.2899999618530273
1744304532.744,-9.380000114440918,14.5600004196167,2.5899999141693115
1744304532.744,-9.730000495910645,14.699999809265137,2.0299999713897705
1744304532.744,-9.59000015258789,15.260000228881836,1.6800000667572021
1744304532.744,-9.520000457763672,16.309999465942383,1.9600000381469727
1744304532.744,-9.869999885559082,17.079999923706055,3.1500000953674316
1744304532.819,-9.800000190734863,17.290000915527344,4.96999979019165
1744304532.819,-9.520000457763672,17.360000610351562,7.630000114440918
1744304532.819,-8.960000038146973,17.149999618530273,10.289999961853027
1744304532.819,-7.769999980926514,16.729999542236328,12.390000343322754
1744304532.819,-6.019999980926514,15.960000038146973,13.789999961853027
1744304532.819,-4.760000228881836,15.470000267028809,14.770000457763672
1744304532.819,-4.130000114440918,14.84000015258789,15.399999618530273
1744304532.819,-4.199999809265137,14.210000038146973,15.819999694824219
1744304532.893,-3.990000009536743,13.649999618530273,15.680000305175781
1744304532.893,-2.940000057220459,12.460000038146973,15.680000305175781
1744304532.893,-0.7699999809265137,8.890000343322754,15.050000190734863
1744304532.893,0.07000000029802322,-6.300000190734863,14.069999694824219
1744304532.893,0.14000000059604645,-19.25,16.8700008392334
1744304532.893,6.440000057220459,-25.40999984741211,22.190000534057617
1744304532.893,11.619999885559082,-28.979999542236328,27.579999923706055
1744304532.893,6.440000057220459,-34.02000045776367,30.450000762939453
1744304532.967,5.179999828338623,-40.040000915527344,30.799999237060547
1744304532.967,2.1700000762939453,-44.52000045776367,28.21000099182129
1744304532.967,-1.9600000381469727,-43.959999084472656,22.610000610351562
1744304532.967,-3.640000104904175,-39.689998626708984,17.850000381469727
1744304532.967,-1.5399999618530273,-34.86000061035156,17.219999313354492
1744304532.967,-0.699999988079071,-29.329999923706055,19.25
1744304532.967,-0.5600000023841858,-20.719999313354492,19.46000099182129
1744304532.967,-0.21000000834465027,-12.8100004196167,16.100000381469727
1744304533.041,-0.699999988079071,-7.980000019073486,12.739999771118164
1744304533.041,-1.6100000143051147,-4.829999923706055,12.390000343322754
1744304533.041,-3.5,-0.9100000262260437,14.420000076293945
1744304533.041,-6.369999885559082,1.2599999904632568,18.200000762939453
1744304533.041,-6.650000095367432,0.07000000029802322,22.96000099182129
1744304533.041,-7.559999942779541,-2.380000114440918,28.420000076293945
1744304533.041,-8.1899995803833,-5.179999828338623,34.790000915527344
1744304533.041,-5.809999942779541,-7.630000114440918,40.810001373291016
1744304533.115,-5.320000171661377,-8.609999656677246,44.380001068115234
1744304533.115,0.07000000029802322,-7.769999980926514,46.060001373291016
1744304533.115,7.559999942779541,-5.039999961853027,44.869998931884766
1744304533.115,13.720000267028809,-1.3300000429153442,40.7400016784668
1744304533.115,18.829999923706055,2.309999942779541,34.22999954223633
1744304533.115,24.639999389648438,5.809999942779541,26.809999465942383
1744304533.115,27.510000228881836,8.960000038146973,18.34000015258789
1744304533.115,26.31999969482422,10.079999923706055,8.680000305175781
1744304533.19,22.540000915527344,9.65999984741211,-3.2200000286102295
1744304533.19,18.34000015258789,9.449999809265137,-13.230000495910645
1744304533.19,14.5600004196167,8.75,-20.15999984741211
1744304533.19,11.130000114440918,6.090000152587891,-23.309999465942383
1744304533.19,8.680000305175781,2.6600000858306885,-24.290000915527344
1744304533.19,8.1899995803833,-0.2800000011920929,-24.5
1744304533.19,10.010000228881836,-2.6600000858306885,-25.1299991607666
1744304533.19,10.640000343322754,-3.8499999046325684,-25.549999237060547
1744304533.264,12.319999694824219,-5.740000247955322,-27.649999618530273
1744304533.264,9.100000381469727,-6.650000095367432,-28
1744304533.264,8.260000228881836,-7,-25.34000015258789
1744304533.264,6.929999828338623,-6.369999885559082,-20.440000534057617
1744304533.264,7,-5.039999961853027,-14.140000343322754
1744304533.264,5.599999904632568,-4.059999942779541,-8.609999656677246
1744304533.264,4.480000019073486,-2.7300000190734863,-3.7100000381469727
1744304533.264,3.7799999713897705,-1.1200000047683716,-0.5600000023841858
1744304533.338,3.2200000286102295,0,0.9100000262260437
1744304533.338,1.3300000429153442,0.8400000333786011,1.6800000667572021
1744304533.338,-0.7699999809265137,1.6100000143051147,2.0299999713897705
1744304533.338,-3.2899999618530273,2.0299999713897705,3.0799999237060547
1744304533.338,-7.630000114440918,1.6800000667572021,4.059999942779541
1744304533.338,-11.619999885559082,0.7699999809265137,5.460000038146973
1744304533.338,-14.770000457763672,0,7.420000076293945
1744304533.338,-17.290000915527344,-1.190000057220459,9.59000015258789
1744304533.412,-19.600000381469727,-2.450000047683716,12.319999694824219
1744304533.412,-20.93000030517578,-4.619999885559082,14.699999809265137
1744304533.412,-21.84000015258789,-6.440000057220459,16.59000015258789
1744304533.412,-21.489999771118164,-8.680000305175781,17.5
1744304533.412,-20.09000015258789,-11.40999984741211,17.219999313354492
1744304533.412,-18.479999542236328,-14.210000038146973,15.960000038146973
1744304533.412,-16.799999237060547,-16.729999542236328,14.699999809265137
1744304533.412,-14,-18.479999542236328,13.510000228881836
1744304533.486,-9.029999732971191,-19.600000381469727,11.130000114440918
1744304533.486,-4.269999980926514,-20.860000610351562,7.909999847412109
1744304533.486,-1.6800000667572021,-22.329999923706055,4.130000114440918
1744304533.486,-0.3499999940395355,-23.170000076293945,1.1200000047683716
1744304533.486,4.340000152587891,-22.96000099182129,-0.7699999809265137
1744304533.486,10.220000267028809,-22.260000228881836,-1.8200000524520874
1744304533.486,14.279999732971191,-21.280000686645508,-3.9200000762939453
1744304533.486,15.470000267028809,-21.489999771118164,-7.699999809265137
1744304533.561,14.770000457763672,-23.799999237060547,-12.319999694824219
1744304533.561,13.510000228881836,-26.880001068115234,-15.819999694824219
1744304533.561,11.0600004196167,-29.81999969482422,-17.43000030517578
1744304533.561,8.260000228881836,-31.850000381469727,-16.65999984741211
1744304533.561,6.650000095367432,-32.619998931884766,-13.789999961853027
1744304533.561,6.159999847412109,-34.15999984741211,-9.65999984741211
1744304533.561,7.210000038146973,-34.369998931884766,-5.320000171661377
1744304533.561,-5.039999961853027,-24.989999771118164,-3.2899999618530273
1744304533.635,-4.900000095367432,-10.430000305175781,-9.380000114440918
1744304533.635,2.380000114440918,-3.1500000953674316,-19.31999969482422
1744304533.635,13.300000190734863,-1.6100000143051147,-31.149999618530273
1744304533.635,17.010000228881836,8.399999618530273,-42.560001373291016
1744304533.635,14.5600004196167,16.030000686645508,-48.58000183105469
1744304533.635,3.2899999618530273,7.420000076293945,-50.470001220703125
1744304533.635,-0.49000000953674316,5.599999904632568,-45.220001220703125
1744304533.635,-5.25,9.730000495910645,-36.959999084472656
1744304533.709,-7.139999866485596,7.769999980926514,-32.619998931884766
1744304533.709,-12.319999694824219,3.7100000381469727,-29.81999969482422
1744304533.709,-23.799999237060547,-0.9100000262260437,-32.54999923706055
1744304533.709,-28.770000457763672,-3.569999933242798,-41.439998626708984
1744304533.709,-22.96000099182129,-6.650000095367432,-54.25
1744304533.709,-20.299999237060547,-10.149999618530273,-64.81999969482422
1744304533.709,-23.170000076293945,-12.180000305175781,-69.86000061035156
1744304533.709,-20.719999313354492,-9.3100004196167,-68.25
1744304533.783,-21.350000381469727,-8.119999885559082,-60.76000213623047
1744304533.783,-18.6200008392334,-7.980000019073486,-48.650001525878906
1744304533.783,-13.510000228881836,-8.75,-35.630001068115234
1744304533.783,-4.619999885559082,-9.029999732971191,-23.520000457763672
1744304533.783,-0.49000000953674316,-8.75,-11.550000190734863
1744304533.783,3.3600001335144043,-8.119999885559082,0.699999988079071
1744304533.783,7.630000114440918,-7.699999809265137,10.430000305175781
1744304533.783,9.3100004196167,-7.980000019073486,15.329999923706055
1744304533.858,8.819999694824219,-8.890000343322754,17.360000610351562
1744304533.858,8.539999961853027,-9.449999809265137,18.059999465942383
1744304533.858,8.260000228881836,-8.119999885559082,17.71000099182129
1744304533.858,7.420000076293945,-5.320000171661377,17.639999389648438
1744304533.858,5.880000114440918,-3.0799999237060547,17.43000030517578
1744304533.858,5.389999866485596,-1.3300000429153442,15.960000038146973
1744304533.858,6.789999961853027,0.2800000011920929,12.039999961853027
1744304533.858,-1.399999976158142,1.190000057220459,8.819999694824219
1744304533.932,-5.53000020980835,3.009999990463257,7
1744304533.932,-4.480000019073486,4.059999942779541,6.300000190734863
1744304533.932,-4.059999942779541,4.900000095367432,7.490000247955322
1744304533.932,-2.7300000190734863,4.619999885559082,7.909999847412109
1744304533.932,1.190000057220459,4.900000095367432,8.539999961853027
1744304533.932,1.8899999856948853,5.809999942779541,10.010000228881836
1744304533.932,3.7100000381469727,6.090000152587891,9.869999885559082
1744304533.932,0.9100000262260437,5.880000114440918,8.1899995803833
1744304534.006,2.309999942779541,6.440000057220459,5.389999866485596
1744304534.006,2.5199999809265137,5.880000114440918,2.380000114440918
1744304534.006,2.6600000858306885,5.179999828338623,-1.399999976158142
1744304534.006,2.940000057220459,4.619999885559082,-5.179999828338623
1744304534.006,4.199999809265137,4.480000019073486,-8.470000267028809
1744304534.006,4.340000152587891,4.340000152587891,-11.899999618530273
1744304534.006,3.1500000953674316,4.199999809265137,-14.489999771118164
1744304534.006,0.3499999940395355,3.990000009536743,-16.65999984741211
1744304534.08,-3.8499999046325684,3.430000066757202,-19.950000762939453
1744304534.08,-3.1500000953674316,4.96999979019165,-22.469999313354492
1744304534.08,-5.389999866485596,6.369999885559082,-21.770000457763672
1744304534.08,-9.65999984741211,8.470000267028809,-18.690000534057617
1744304534.08,-13.510000228881836,10.5,-14.980000495910645
1744304534.08,-14.90999984741211,12.880000114440918,-11.899999618530273
1744304534.08,-16.030000686645508,15.890000343322754,-8.609999656677246
1744304534.08,-15.190000534057617,20.229999542236328,-5.110000133514404
1744304534.154,-14.84000015258789,23.799999237060547,-1.8899999856948853
1744304534.154,-12.600000381469727,26.46000099182129,0.9100000262260437
1744304534.154,-10.569999694824219,27.93000030517578,3.2899999618530273
1744304534.154,-9.3100004196167,28.770000457763672,4.340000152587891
1744304534.154,-8.470000267028809,29.469999313354492,4.480000019073486
1744304534.154,-7,30.239999771118164,4.409999847412109
1744304534.154,-6.369999885559082,29.75,4.340000152587891
1744304534.154,-6.720000267028809,29.1200008392334,4.96999979019165
1744304534.229,-5.599999904632568,28.700000762939453,6.159999847412109
1744304534.229,-3.8499999046325684,28,3.990000009536743
1744304534.229,-3.1500000953674316,28.21000099182129,3.569999933242798
1744304534.229,2.0999999046325684,28.420000076293945,4.690000057220459
1744304534.229,5.039999961853027,28.84000015258789,7.070000171661377
1744304534.229,6.650000095367432,30.380001068115234,10.640000343322754
1744304534.229,8.119999885559082,31.56999969482422,15.960000038146973
1744304534.229,10.430000305175781,29.68000030517578,20.790000915527344
1744304534.303,-0.07000000029802322,15.890000343322754,29.329999923706055
1744304534.303,0.6299999952316284,0.699999988079071,38.849998474121094
1744304534.303,11.480000495910645,-6.159999847412109,46.619998931884766
1744304534.303,17.079999923706055,-10.289999961853027,56.84000015258789
1744304534.303,12.8100004196167,-21,67.2699966430664
1744304534.303,-3.009999990463257,-30.520000457763672,79.66000366210938
1744304534.303,-11.480000495910645,-30.520000457763672,82.5999984741211
1744304534.303,-6.369999885559082,-27.020000457763672,74.9000015258789
1744304534.377,-1.190000057220459,-22.610000610351562,65.44999694824219
1744304534.377,9.029999732971191,-13.09000015258789,56.349998474121094
1744304534.377,28.06999969482422,-1.6800000667572021,41.93000030517578
1744304534.377,30.59000015258789,6.019999980926514,32.970001220703125
1744304534.377,28,7.630000114440918,35.209999084472656
1744304534.377,31.079999923706055,12.319999694824219,41.15999984741211
1744304534.377,30.59000015258789,14.069999694824219,43.470001220703125
1744304534.377,31.920000076293945,15.539999961853027,44.310001373291016
1744304534.451,23.520000457763672,15.119999885559082,39.40999984741211
1744304534.451,27.719999313354492,14.770000457763672,31.43000030517578
1744304534.451,26.389999389648438,13.15999984741211,25.690000534057617
1744304534.451,23.170000076293945,8.680000305175781,16.239999771118164
1744304534.451,17.780000686645508,3.7100000381469727,2.799999952316284
1744304534.451,20.510000228881836,0.699999988079071,-10.920000076293945
1744304534.451,21.84000015258789,-1.1200000047683716,-21.6299991607666
1744304534.451,17.290000915527344,-1.5399999618530273,-21.280000686645508
1744304534.526,9.380000114440918,-3.430000066757202,-18.059999465942383
1744304534.526,5.53000020980835,-6.230000019073486,-21
1744304534.526,-0.3499999940395355,-6.860000133514404,-18.479999542236328
1744304534.526,-1.9600000381469727,-8.960000038146973,-15.890000343322754
1744304534.526,-1.399999976158142,-11.199999809265137,-14.420000076293945
1744304534.526,1.5399999618530273,-12.880000114440918,-13.579999923706055
1744304534.526,-6.369999885559082,-14.90999984741211,-13.579999923706055
1744304534.526,-15.680000305175781,-17.010000228881836,-9.59000015258789
1744304534.6,-15.470000267028809,-18.40999984741211,-5.110000133514404
1744304534.6,-9.9399995803833,-19.670000076293945,-2.5199999809265137
1744304534.6,-7.840000152587891,-18.479999542236328,0.7699999809265137
1744304534.6,-8.890000343322754,-18.1299991607666,-0.42000001668930054
1744304534.6,-9.800000190734863,-16.239999771118164,-0.9100000262260437
1744304534.6,-12.460000038146973,-15.329999923706055,0.14000000059604645
1744304534.6,-13.15999984741211,-14.630000114440918,2.380000114440918
1744304534.6,-15.539999961853027,-13.789999961853027,4.269999980926514
1744304534.674,-16.3799991607666,-14.489999771118164,4.690000057220459
1744304534.674,-17.010000228881836,-15.119999885559082,4.130000114440918
1744304534.674,-19.600000381469727,-17.360000610351562,1.5399999618530273
1744304534.674,-21.6299991607666,-19.389999389648438,1.4700000286102295
1744304534.674,-20.229999542236328,-21.280000686645508,3.2899999618530273
1744304534.674,-18.059999465942383,-24.360000610351562,4.340000152587891
1744304534.674,-15.680000305175781,-28.84000015258789,5.039999961853027
1744304534.674,-9.65999984741211,-33.810001373291016,5.880000114440918
1744304534.748,-2.6600000858306885,-37.79999923706055,7.349999904632568
