                                                                                LinearAcceleration                                                              10.04.2519.43.20104 
Timestamp,AccX,AccY,AccZ
1744304518.952,2.5173392295837402,22.804414749145508,3.374000310897827
1744304518.952,7.260083198547363,19.157621383666992,7.4228010177612305
1744304518.952,11.911896705627441,10.983448028564453,0.9332341551780701
1744304518.952,9.112194061279297,5.230896949768066,-7.949240684509277
1744304518.952,-7.915740013122559,-2.158403158187866,-11.69174861907959
1744304518.952,-21.339954376220703,-4.929390907287598,-11.375885009765625
1744304518.952,-19.248552322387695,-3.302213191986084,0.6030128598213196
1744304518.952,-6.054057598114014,2.713557720184326,-4.024871349334717
1744304519.026,5.120823383331299,8.437394142150879,-9.648205757141113
1744304519.026,8.719757080078125,14.749885559082031,-7.906168460845947
1744304519.026,7.063864707946777,20.215288162231445,-4.000942230224609
1744304519.026,0.9619490504264832,19.865922927856445,-2.4120514392852783
1744304519.026,-3.4457876682281494,13.314140319824219,-1.7611804008483887
1744304519.026,-2.6896286010742188,7.834381103515625,-1.2634555101394653
1744304519.026,-2.6178414821624756,5.039464473724365,-2.61305570602417
1744304519.026,-2.0004711151123047,4.498667240142822,-3.8477962017059326
1744304519.1,-1.1055235862731934,6.034914016723633,-4.206732273101807
1744304519.1,-0.36850783228874207,8.810688018798828,-4.556097030639648
1744304519.1,1.0768086910247803,10.461793899536133,-4.268948078155518
1744304519.1,2.1679747104644775,11.2658109664917,-4.278519630432129
1744304519.1,2.579555034637451,11.198809623718262,-4.364664554595947
1744304519.1,2.0626866817474365,10.375649452209473,-3.8190813064575195
1744304519.1,0.6891575455665588,9.605133056640625,-3.196925163269043
1744304519.1,-0.14836029708385468,9.174409866333008,-2.4359803199768066
1744304519.175,-0.5551546812057495,9.160052299499512,-1.5697476863861084
1744304519.175,-0.9906639456748962,9.475915908813477,-0.8183745741844177
1744304519.175,-1.1198810338974,9.389771461486816,-0.7848738431930542
1744304519.175,-0.6460852026939392,9.274911880493164,-1.7755378484725952
1744304519.175,0.5742979645729065,8.94947624206543,-3.0054924488067627
1744304519.175,1.7372512817382812,8.743685722351074,-3.6707210540771484
1744304519.175,2.3785505294799805,8.791543960571289,-3.8812968730926514
1744304519.175,2.732701063156128,8.997334480285645,-3.9961564540863037
1744304519.249,2.8140599727630615,9.298840522766113,-4.010513782501221
1744304519.249,2.4838385581970215,9.518988609313965,-3.7712230682373047
1744304519.249,2.14404559135437,9.466344833374023,-3.6850783824920654
1744304519.249,2.0483293533325195,9.140909194946289,-3.4410018920898438
1744304519.249,2.158403158187866,9.308412551879883,-3.1729960441589355
1744304519.249,1.995685338973999,9.36584186553955,-2.536482572555542
1744304519.249,1.622391700744629,9.466344833374023,-1.928683876991272
1744304519.249,0.9763064980506897,9.542917251586914,-0.9763064980506897
1744304519.324,0.6508709788322449,9.428057670593262,-0.569512128829956
1744304519.324,0.5503688454627991,9.719992637634277,-0.5790837407112122
1744304519.324,0.8470894694328308,10.504866600036621,-0.30629223585128784
1744304519.324,1.9430413246154785,10.744157791137695,-0.6412993669509888
1744304519.324,2.6800570487976074,11.05044937133789,-0.43550926446914673
1744304519.324,3.0102784633636475,11.08395004272461,0.4450809061527252
1744304519.324,3.4457876682281494,10.69629955291748,0.5790837407112122
1744304519.324,4.091872692108154,10.792015075683594,0.45943835377693176
1744304519.398,4.436451435089111,11.036091804504395,0.3732936680316925
1744304519.398,4.441237449645996,10.911661148071289,0.34936457872390747
1744304519.398,4.206732273101807,11.150951385498047,0.3302213251590729
1744304519.398,4.154088497161865,11.361527442932129,0.540797233581543
1744304519.398,4.3311638832092285,11.361527442932129,1.3783150911331177
1744304519.398,4.144516944885254,11.375885009765625,2.3785505294799805
1744304519.398,3.87172532081604,11.313669204711914,3.421858549118042
1744304519.398,3.7616515159606934,11.744393348693848,4.484309673309326
1744304519.472,3.919583559036255,11.926254272460938,5.709478855133057
1744304519.472,4.029657363891602,12.581911087036133,6.781501770019531
1744304519.472,4.264162063598633,14.17558765411377,5.690335273742676
1744304519.472,4.388593673706055,14.730742454528809,7.642948627471924
1744304519.472,3.900440216064453,15.884123802185059,7.781737327575684
1744304519.472,3.5080032348632812,16.037269592285156,2.0770442485809326
1744304519.472,-0.18664683401584625,14.596739768981934,0.8327320218086243
1744304519.472,-2.431194543838501,14.405306816101074,3.8525819778442383
1744304519.546,-4.575240135192871,14.596739768981934,1.2443121671676636
1744304519.546,-5.508474349975586,14.850387573242188,-0.3110780417919159
1744304519.546,-1.1629533767700195,15.472543716430664,-1.3448143005371094
1744304519.546,0.19621846079826355,16.74557113647461,-5.4558305740356445
1744304519.546,1.148595929145813,19.483057022094727,-6.733643531799316
1744304519.546,-0.5264397859573364,20.526365280151367,-5.762122631072998
1744304519.546,4.1493024826049805,21.636674880981445,-5.8913397789001465
1744304519.546,0.08614469319581985,20.392362594604492,-3.0389933586120605
1744304519.621,3.632434368133545,16.391420364379883,0.0047858161851763725
1744304519.621,-4.919818878173828,13.572574615478516,-4.967677116394043
1744304519.621,3.589362144470215,20.229644775390625,0.6221560835838318
1744304519.621,5.273969650268555,13.99372673034668,-2.9145619869232178
1744304519.621,5.369685649871826,14.60152530670166,-1.7085363864898682
1744304519.621,6.685785293579102,8.384750366210938,-1.4979604482650757
1744304519.621,0.8662327527999878,10.8685884475708,-0.9858781099319458
1744304519.621,0.9284483194351196,10.78244400024414,-3.273498296737671
1744304519.696,-3.436216115951538,15.056178092956543,-3.6132912635803223
1744304519.696,-0.8662327527999878,9.389771461486816,-0.8518753051757812
1744304519.696,-1.584105134010315,11.715678215026855,1.6032484769821167
1744304519.696,2.8714897632598877,9.203125,1.5410327911376953
1744304519.696,0.7609447836875916,8.418251037597656,2.158403158187866
1744304519.696,0.5982270240783691,7.552018165588379,2.2014753818511963
1744304519.696,0.4259376525878906,9.0978364944458,0.7944455146789551
1744304519.696,-2.565197467803955,12.256475448608398,-0.7561589479446411
1744304519.77,0.49772489070892334,5.058607578277588,1.4740313291549683
1744304519.77,0.521653950214386,7.88223934173584,-0.3110780417919159
1744304519.77,0.5982270240783691,7.030364036560059,-0.7800880670547485
1744304519.77,1.3974583148956299,4.881532669067383,1.6080342531204224
1744304519.77,1.1533817052841187,4.393379211425781,1.5553902387619019
1744304519.77,1.0289504528045654,4.52259635925293,0.8040171265602112
1744304519.77,1.8281817436218262,4.398165225982666,0.746587336063385
1744304519.77,1.7324655055999756,1.8233959674835205,1.5266753435134888
1744304519.844,0.9428057670593262,3.933940887451172,0.16750356554985046
1744304519.844,0.4929390549659729,4.158874034881592,0.3541503846645355
1744304519.844,0.6987291574478149,2.158403158187866,0.5120823383331299
1744304519.844,0.2632198929786682,2.359407424926758,0.8327320218086243
1744304519.844,0.6556568145751953,1.7516087293624878,0.9093050956726074
1744304519.844,1.531461238861084,1.139024257659912,1.3831008672714233
1744304519.844,1.1438100337982178,3.244783401489258,0.6365135312080383
1744304519.844,0.23929080367088318,3.823867082595825,-0.3206496834754944
1744304519.918,0.3302213251590729,2.1057591438293457,1.1820966005325317
1744304519.918,0.7226582169532776,2.3929080963134766,0.9571632146835327
1744304519.918,0.8997334241867065,2.5460541248321533,0.7800880670547485
1744304519.918,1.2443121671676636,2.7518444061279297,1.148595929145813
1744304519.918,2.2254045009613037,2.565197467803955,1.7898952960968018
1744304519.918,2.6465563774108887,2.8762755393981934,1.9095406532287598
1744304519.918,3.3404996395111084,3.1012089252471924,2.7853450775146484
1744304519.918,3.8477962017059326,3.2160685062408447,3.0677082538604736
1744304519.993,4.235447406768799,3.5462896823883057,3.4410018920898438
1744304519.993,4.891104221343994,3.4888598918914795,3.7903664112091064
1744304519.993,5.192610740661621,4.369450092315674,4.197160720825195
1744304519.993,6.207203388214111,5.26918363571167,4.46995210647583
1744304519.993,7.408443450927734,6.1306304931640625,5.039464473724365
1744304519.993,8.691041946411133,6.786287307739258,5.518045902252197
1744304519.993,8.839402198791504,7.212224960327148,5.489331245422363
1744304519.993,8.518753051757812,6.872432231903076,4.714028835296631
1744304520.068,7.973169803619385,6.542210578918457,4.4268798828125
1744304520.068,7.681234836578369,5.8913397789001465,5.168681621551514
1744304520.068,9.839637756347656,6.757572650909424,7.628591060638428
1744304520.068,10.796801567077637,9.830066680908203,10.433079719543457
1744304520.068,10.375649452209473,12.189474105834961,9.542917251586914
1744304520.068,9.150480270385742,14.572810173034668,7.1835103034973145
1744304520.068,7.590304374694824,15.563474655151367,8.451751708984375
1744304520.068,2.718343496322632,14.79295825958252,6.408207893371582
1744304520.142,-2.2110471725463867,11.663034439086914,1.4596738815307617
1744304520.142,-2.7949166297912598,5.604190826416016,1.0050214529037476
1744304520.142,-2.9337053298950195,1.0528795719146729,-0.37807947397232056
1744304520.142,-1.1055235862731934,1.651106595993042,-2.493410348892212
1744304520.142,6.9872918128967285,2.9672060012817383,4.915033340454102
1744304520.142,10.485723495483398,7.815237998962402,5.020321369171143
1744304520.142,10.619726181030273,10.648441314697266,0.7944455146789551
1744304520.142,5.431901454925537,18.779542922973633,0.5120823383331299
1744304520.216,6.006199359893799,16.377063751220703,5.092108249664307
1744304520.216,1.770751953125,13.443357467651367,3.886082649230957
1744304520.216,-1.8712540864944458,11.825752258300781,3.929155111312866
1744304520.216,-0.29672059416770935,8.911190032958984,4.651813507080078
1744304520.216,0.16750356554985046,8.145459175109863,1.8951832056045532
1744304520.216,0.7800880670547485,9.179195404052734,0.03828652948141098
1744304520.216,3.000706672668457,10.10285758972168,-0.588655412197113
1744304520.216,2.9145619869232178,10.45222282409668,-1.6654640436172485
1744304520.29,3.091637372970581,9.906639099121094,-2.10097336769104
1744304520.29,5.63290548324585,9.853995323181152,-1.4118157625198364
1744304520.29,5.9200544357299805,10.581439971923828,-1.517103672027588
1744304520.29,4.5704545974731445,9.351485252380371,0.3350071310997009
1744304520.29,3.5941479206085205,12.203831672668457,0.1005021408200264
1744304520.29,3.058136463165283,11.552960395812988,-0.5982270240783691
1744304520.29,2.7662017345428467,12.289976119995117,-0.03828652948141098
1744304520.29,1.9908995628356934,10.614940643310547,0.679585874080658
1744304520.365,1.8186101913452148,10.404364585876465,-0.46900999546051025
1744304520.365,1.4022440910339355,8.34167766571045,-0.14357449114322662
1744304520.365,0.17707519233226776,7.9683837890625,0.047858163714408875
1744304520.365,-0.08135887235403061,8.346463203430176,-0.009571632370352745
1744304520.365,-0.17707519233226776,7.623805046081543,0.11964540183544159
1744304520.365,0.7178724408149719,9.006906509399414,0.26800569891929626
1744304520.365,1.3113136291503906,8.552253723144531,1.5888910293579102
1744304520.365,1.4836030006408691,9.284482955932617,0.29672059416770935
1744304520.44,0.4546525478363037,11.122237205505371,-0.3110780417919159
1744304520.44,0.765730619430542,10.62451171875,-0.05742979422211647
1744304520.44,0.904519259929657,9.99278450012207,-0.6508709788322449
1744304520.44,1.6367491483688354,9.250982284545898,-1.4788172245025635
1744304520.44,2.1536173820495605,8.379963874816895,-1.5793193578720093
1744304520.44,2.4216229915618896,8.006670951843262,-1.7133221626281738
1744304520.44,2.6321988105773926,7.609447956085205,-2.206261157989502
1744304520.44,2.943276882171631,7.566375255584717,-2.297191858291626
1744304520.514,2.8427748680114746,8.021027565002441,-1.876039981842041
1744304520.514,2.9337053298950195,8.638398170471191,-1.3017419576644897
1744304520.514,3.0389933586120605,9.121766090393066,-1.2490980625152588
1744304520.514,2.584340810775757,9.236625671386719,-0.9428057670593262
1744304520.514,1.9382555484771729,9.294054985046387,-0.7322298884391785
1744304520.514,1.2108114957809448,8.9590482711792,-0.746587336063385
1744304520.514,0.6748000979423523,8.6096830368042,-1.1438100337982178
1744304520.514,0.5312256217002869,8.408679008483887,-1.1150951385498047
1744304520.588,0.952377438545227,8.48046588897705,-0.923662543296814
1744304520.588,1.1007376909255981,8.772400856018066,-1.6032484769821167
1744304520.588,0.9858781099319458,8.997334480285645,-1.7324655055999756
1744304520.588,0.11485958844423294,9.370628356933594,-1.6654640436172485
1744304520.588,-0.26800569891929626,9.81092357635498,-1.7851094007492065
1744304520.588,0.05264397710561752,9.892282485961914,-2.0052568912506104
1744304520.588,0.7035149931907654,9.964069366455078,-2.1966896057128906
1744304520.588,1.4883887767791748,9.571632385253906,-2.479052782058716
1744304520.662,2.086615800857544,9.064335823059082,-2.8619179725646973
1744304520.662,2.3067634105682373,8.868117332458496,-3.2639267444610596
1744304520.662,2.0914015769958496,8.92554759979248,-3.2304258346557617
1744304520.662,1.5697476863861084,9.13133716583252,-3.1012089252471924
1744304520.662,1.2155972719192505,9.361056327819824,-3.5032174587249756
1744304520.662,1.1007376909255981,9.317984580993652,-3.4601449966430664
1744304520.662,0.9284483194351196,9.39934253692627,-3.6563634872436523
1744304520.662,0.5312256217002869,9.719992637634277,-3.6276485919952393
1744304520.737,-0.24886244535446167,9.552489280700684,-3.1012089252471924
1744304520.737,-0.9093050956726074,9.509416580200195,-3.1107804775238037
1744304520.737,-0.8997334241867065,9.361056327819824,-3.5319323539733887
1744304520.737,-0.36850783228874207,9.10740852355957,-3.6707210540771484
1744304520.737,0.09571632742881775,9.054763793945312,-3.7616515159606934
1744304520.737,0.4833674430847168,9.222268104553223,-3.555861473083496
1744304520.737,0.3206496834754944,9.480701446533203,-3.350071430206299
1744304520.737,0.11485958844423294,9.743921279907227,-2.8427748680114746
1744304520.812,0.12443122267723083,9.873138427734375,-2.359407424926758
1744304520.812,0.3206496834754944,9.906639099121094,-1.809038519859314
1744304520.812,0.8231604099273682,9.686491966247559,-1.4501023292541504
1744304520.812,1.3543859720230103,9.609918594360352,-1.9095406532287598
1744304520.812,1.6080342531204224,9.724778175354004,-2.053115129470825
1744304520.812,1.6463208198547363,9.676919937133789,-1.6606782674789429
1744304520.812,1.4596738815307617,9.514202117919922,-2.220618724822998
1744304520.812,1.0576653480529785,9.772636413574219,-2.938491106033325
1744304520.886,1.335242748260498,10.002355575561523,-1.8664683103561401
1744304520.886,1.809038519859314,10.11242961883545,-1.9717562198638916
1744304520.886,1.4740313291549683,10.394792556762695,-1.4883887767791748
1744304520.886,1.1677391529083252,10.52879524230957,-1.177310824394226
1744304520.886,1.148595929145813,10.748943328857422,-1.177310824394226
1744304520.886,1.4022440910339355,10.701085090637207,-1.0480937957763672
1744304520.886,1.7563945055007935,10.351720809936523,-1.0624512434005737
1744304520.886,2.1966896057128906,10.318220138549805,-0.9763064980506897
1744304520.96,2.713557720184326,10.643654823303223,-0.9763064980506897
1744304520.96,3.1873536109924316,11.672605514526367,-0.923662543296814
1744304520.96,3.2495691776275635,13.127493858337402,-1.1198810338974
1744304520.96,2.833203077316284,13.500787734985352,-0.8853759765625
1744304520.96,2.354621648788452,13.285426139831543,-0.15314611792564392
1744304520.96,2.593912363052368,13.10835075378418,0.7944455146789551
1744304520.96,3.2160685062408447,13.443357467651367,1.306527853012085
1744304520.96,3.9578700065612793,13.151422500610352,2.3498356342315674
1744304521.035,3.5510756969451904,13.338069915771484,1.7611804008483887
1744304521.035,2.268476963043213,13.275854110717773,0.8566610813140869
1744304521.035,0.3350071310997009,12.433550834655762,3.795152187347412
1744304521.035,-0.9093050956726074,11.830537796020508,0.39722275733947754
1744304521.035,0.4929390549659729,10.375649452209473,0.7226582169532776
1744304521.035,0.4833674430847168,9.801351547241211,0.40679436922073364
1744304521.035,0.6700142621994019,9.083478927612305,-1.4740313291549683
1744304521.035,-0.569512128829956,9.686491966247559,-2.3641932010650635
1744304521.109,-0.2105759084224701,10.63408374786377,-2.268476963043213
1744304521.109,-0.07657305896282196,11.725249290466309,-1.7085363864898682
1744304521.109,-0.7753022313117981,12.414406776428223,-2.536482572555542
1744304521.109,-1.2347406148910522,13.007848739624023,-3.378786325454712
1744304521.109,-1.3113136291503906,13.53428840637207,-3.7137932777404785
1744304521.109,-1.9430413246154785,13.43857192993164,-3.7425081729888916
1744304521.109,-3.153852939605713,12.921703338623047,-3.6372203826904297
1744304521.109,-4.067943572998047,12.28519058227539,-2.6178414821624756
1744304521.184,-4.249804973602295,11.380670547485352,-1.904754877090454
1744304521.184,-3.795152187347412,10.323005676269531,-1.5027462244033813
1744304521.184,-3.1729960441589355,9.562060356140137,-1.5266753435134888
1744304521.184,-2.5699832439422607,9.10740852355957,-1.651106595993042
1744304521.184,-2.507767677307129,9.260554313659668,-1.8951832056045532
1744304521.184,-3.1155662536621094,9.428057670593262,-1.9861136674880981
1744304521.184,-1.8425391912460327,9.356270790100098,-1.904754877090454
1744304521.184,-3.2064969539642334,9.255768775939941,-2.1966896057128906
1744304521.258,-2.1057591438293457,8.42782211303711,-3.6132912635803223
1744304521.258,-1.019378900527954,9.19355297088623,-2.823631525039673
1744304521.258,-1.2730270624160767,9.351485252380371,-2.699200391769409
1744304521.258,-1.7324655055999756,8.762829780578613,-2.7997024059295654
1744304521.258,-3.16821026802063,8.408679008483887,-2.2158329486846924
1744304521.258,-2.177546262741089,7.738664627075195,-1.531461238861084
1744304521.258,-3.02942156791687,8.590539932250977,-0.9954497814178467
1744304521.258,-1.560176134109497,7.585518836975098,-1.3639576435089111
1744304521.332,-2.297191858291626,6.685785293579102,-1.7755378484725952
1744304521.332,-2.536482572555542,6.838931560516357,-2.0626866817474365
1744304521.332,-2.297191858291626,6.963362693786621,-1.904754877090454
1744304521.332,-2.129688262939453,7.231368064880371,-1.7276796102523804
1744304521.332,-1.6989647150039673,7.217010974884033,-1.6319633722305298
1744304521.332,-1.6080342531204224,7.202653408050537,-1.6080342531204224
1744304521.332,-1.531461238861084,7.40365743637085,-1.4309589862823486
1744304521.332,-1.1916682720184326,7.336656093597412,-1.2203831672668457
1744304521.407,-0.9571632146835327,7.26486873626709,-1.0098072290420532
1744304521.407,-0.29672059416770935,6.958576679229736,-0.7418015003204346
1744304521.407,0.5503688454627991,6.862860202789307,-0.39722275733947754
1744304521.407,1.0480937957763672,7.499373912811279,-0.12921704351902008
1744304521.407,1.7563945055007935,7.9683837890625,0.3541503846645355
1744304521.407,2.761415958404541,8.58575439453125,0.5647262930870056
1744304521.407,3.134709596633911,8.86333179473877,0.7035149931907654
1744304521.407,3.4314301013946533,9.140909194946289,1.2108114957809448
1744304521.481,3.8334388732910156,8.743685722351074,1.4788172245025635
1744304521.481,4.436451435089111,8.710185050964355,1.9861136674880981
1744304521.481,4.824102878570557,9.317984580993652,1.7851094007492065
1744304521.481,5.924840450286865,9.590775489807129,2.1679747104644775
1744304521.481,6.37949275970459,10.160287857055664,2.852346420288086
1744304521.481,6.092343807220459,10.69629955291748,3.1921393871307373
1744304521.481,5.92962646484375,11.457243919372559,2.584340810775757
1744304521.481,5.336184978485107,11.974112510681152,2.6752712726593018
1744304521.556,4.02008581161499,12.155973434448242,3.2782840728759766
1744304521.556,2.732701063156128,11.811394691467285,4.249804973602295
1744304521.556,1.8808257579803467,10.591011047363281,4.6757426261901855
1744304521.556,1.1581674814224243,9.719992637634277,4.259376525878906
1744304521.556,0.6173703074455261,8.39432144165039,2.8427748680114746
1744304521.556,-0.39722275733947754,7.470659255981445,0.9475916028022766
1744304521.556,-3.1251380443573,9.777422904968262,-2.1536173820495605
1744304521.556,-5.805194854736328,16.391420364379883,-3.4266443252563477
1744304521.63,-3.0724940299987793,22.65605354309082,-0.06221561133861542
1744304521.63,2.641770601272583,19.023618698120117,7.068650722503662
1744304521.63,13.572574615478516,14.08944320678711,2.249333620071411
1744304521.63,9.102622032165527,7.245725631713867,-3.0724940299987793
1744304521.63,-1.2490980625152588,6.647498607635498,-7.513731479644775
1744304521.63,-9.437629699707031,7.202653408050537,-4.302448749542236
1744304521.63,-9.47113037109375,7.532874584197998,0.46900999546051025
1744304521.63,-5.326613426208496,7.671663284301758,-3.3692145347595215
1744304521.704,-2.354621648788452,7.652520179748535,-7.250511646270752
1744304521.704,-0.05264397710561752,7.513731479644775,-7.394085884094238
1744304521.704,1.718108057975769,7.638162612915039,-5.7573370933532715
1744304521.704,2.550840139389038,8.068885803222656,-3.905225992202759
1744304521.704,1.8281817436218262,10.203360557556152,-2.900204658508301
1744304521.704,-0.44986671209335327,11.801822662353516,-2.4503378868103027
1744304521.704,-2.129688262939453,11.552960395812988,-2.134474039077759
1744304521.704,-1.7851094007492065,10.758514404296875,-2.010042905807495
1744304521.779,-0.14836029708385468,9.657776832580566,-1.7516087293624878
1744304521.779,1.2251689434051514,9.65299129486084,-2.043543577194214
1744304521.779,2.053115129470825,9.547703742980957,-1.689393162727356
1744304521.779,2.0961875915527344,9.116979598999023,-2.943276882171631
1744304521.779,1.8281817436218262,8.509181022644043,-3.2208542823791504
1744304521.779,2.2014753818511963,8.255533218383789,-2.0339717864990234
1744304521.779,2.670485496520996,8.997334480285645,-1.4309589862823486
1744304521.779,3.019850015640259,10.107644081115723,-1.3160994052886963
1744304521.853,2.6944146156311035,10.361291885375977,-1.2108114957809448
1744304521.853,2.775773286819458,9.849209785461426,-1.4118157625198364
1744304521.853,2.775773286819458,9.002120018005371,-1.335242748260498
1744304521.853,2.684842824935913,8.686256408691406,-1.0098072290420532
1744304521.853,2.2397620677948,9.0978364944458,-1.268241286277771
1744304521.853,1.6606782674789429,9.370628356933594,-1.6415349245071411
1744304521.853,1.6176059246063232,9.222268104553223,-1.679821491241455
1744304521.853,1.560176134109497,9.102622032165527,-1.6654640436172485
1744304521.927,1.679821491241455,9.428057670593262,-2.163188934326172
1744304521.927,1.770751953125,9.56684684753418,-2.493410348892212
1744304521.927,1.6941789388656616,9.576417922973633,-2.4216229915618896
1744304521.927,1.3160994052886963,9.523774147033691,-2.3641932010650635
1744304521.927,1.1246668100357056,9.590775489807129,-2.234976053237915
1744304521.927,0.8231604099273682,9.906639099121094,-2.479052782058716
1744304521.927,0.27757734060287476,9.777422904968262,-2.550840139389038
1744304521.927,-0.21536172926425934,9.538131713867188,-2.670485496520996
1744304522.002,-0.5312256217002869,9.528559684753418,-2.881061315536499
1744304522.002,-0.6173703074455261,9.648205757141113,-3.182567834854126
1744304522.002,-0.5838695764541626,9.389771461486816,-3.058136463165283
1744304522.002,-0.2823631465435028,9.270126342773438,-3.105994701385498
1744304522.002,0.10528795421123505,9.303627014160156,-3.048564910888672
1744304522.002,0.28714898228645325,9.466344833374023,-3.1299238204956055
1744304522.002,0.5647262930870056,9.475915908813477,-2.9624202251434326
1744304522.002,0.6173703074455261,9.480701446533203,-2.804488182067871
1744304522.077,0.5264397859573364,9.31319808959961,-3.000706672668457
1744304522.077,0.6891575455665588,9.059550285339355,-3.244783401489258
1744304522.077,0.7992312908172607,8.92554759979248,-3.211282730102539
1744304522.077,0.8566610813140869,9.734350204467773,-3.316570520401001
1744304522.077,0.6460852026939392,10.179430961608887,-3.0677082538604736
1744304522.077,0.5264397859573364,9.89706802368164,-2.5891265869140625
1744304522.077,0.5264397859573364,9.605133056640625,-1.7085363864898682
1744304522.077,-0.23929080367088318,9.8444242477417,-1.521889567375183
1744304522.151,-1.0911661386489868,10.050213813781738,-1.8712540864944458
1744304522.151,-0.8614469170570374,9.523774147033691,-1.7276796102523804
1744304522.151,-0.20579010248184204,9.026049613952637,-1.809038519859314
1744304522.151,0.6412993669509888,9.246196746826172,-2.297191858291626
1744304522.151,1.2873845100402832,9.499845504760742,-2.6513421535491943
1744304522.151,1.296956181526184,9.518988609313965,-2.7231295108795166
1744304522.151,1.3256710767745972,9.480701446533203,-2.6656997203826904
1744304522.151,1.072022795677185,9.466344833374023,-2.5460541248321533
1744304522.225,0.7178724408149719,9.638633728027344,-2.5316967964172363
1744304522.225,0.382865309715271,9.681706428527832,-2.5460541248321533
1744304522.225,0.2727915346622467,9.308412551879883,-2.4838385581970215
1744304522.225,0.023929081857204437,9.250982284545898,-2.5173392295837402
1744304522.225,-0.41636601090431213,9.600347518920898,-2.445552110671997
1744304522.225,-0.46900999546051025,9.55727481842041,-2.2445478439331055
1744304522.225,-0.7178724408149719,9.65299129486084,-1.9908995628356934
1744304522.225,-0.7705163955688477,9.562060356140137,-1.995685338973999
1744304522.299,-0.8614469170570374,9.657776832580566,-2.2254045009613037
1744304522.299,-0.6700142621994019,9.499845504760742,-2.5316967964172363
1744304522.299,-0.4737958014011383,9.27969741821289,-2.6513421535491943
1744304522.299,-0.39722275733947754,9.327555656433105,-2.8475606441497803
1744304522.299,-0.3445787727832794,9.322770118713379,-2.61305570602417
1744304522.299,-0.3445787727832794,9.518988609313965,-2.6609137058258057
1744304522.299,-0.31586387753486633,9.394556999206543,-2.747058391571045
1744304522.299,-0.25843408703804016,9.428057670593262,-2.7805593013763428
1744304522.374,-0.047858163714408875,9.39934253692627,-2.8475606441497803
1744304522.374,0.04307234659790993,9.629061698913574,-2.6561279296875
1744304522.374,0.11964540183544159,9.619490623474121,-2.522125244140625
1744304522.374,0.14357449114322662,9.542917251586914,-2.28283429145813
1744304522.374,0.05742979422211647,9.490273475646973,-2.148831367492676
1744304522.374,-0.0909305065870285,9.475915908813477,-1.9143264293670654
1744304522.374,-0.22014755010604858,9.518988609313965,-1.809038519859314
1744304522.374,-0.1914326548576355,9.46155834197998,-1.9717562198638916
1744304522.449,-0.19621846079826355,9.542917251586914,-2.0626866817474365
1744304522.449,-0.22493335604667664,9.686491966247559,-2.1057591438293457
1744304522.449,-0.06221561133861542,9.772636413574219,-2.292405843734741
1744304522.449,-0.014357448555529118,9.83485221862793,-2.550840139389038
1744304522.449,0.08614469319581985,9.830066680908203,-2.3450498580932617
1744304522.449,0.06221561133861542,9.667348861694336,-2.234976053237915
1744304522.449,-0.014357448555529118,9.672134399414062,-2.354621648788452
1744304522.449,-0.4115802049636841,9.600347518920898,-2.2254045009613037
1744304522.523,-0.5503688454627991,9.485487937927246,-2.172760486602783
1744304522.523,-0.6604426503181458,9.451987266540527,-2.2301902770996094
1744304522.523,-0.7226582169532776,9.46155834197998,-2.254119396209717
1744304522.523,-0.7753022313117981,9.56684684753418,-2.268476963043213
1744304522.523,-0.8231604099273682,9.509416580200195,-2.325906753540039
1744304522.523,-0.8423036336898804,9.552489280700684,-2.522125244140625
1744304522.523,-0.8758043646812439,9.38498592376709,-2.5460541248321533
1744304522.523,-0.9188767075538635,9.404129028320312,-2.445552110671997
1744304522.597,-0.9093050956726074,9.437629699707031,-2.488624334335327
1744304522.597,-0.8183745741844177,9.514202117919922,-2.488624334335327
1744304522.597,-0.7130866050720215,9.504631042480469,-2.5412683486938477
1744304522.597,-0.4833674430847168,9.480701446533203,-2.47426700592041
1744304522.597,-0.44029510021209717,9.451987266540527,-2.3929080963134766
1744304522.597,-0.39722275733947754,9.499845504760742,-2.354621648788452
1744304522.597,-0.35893622040748596,9.475915908813477,-2.3067634105682373
1744304522.597,-0.49772489070892334,9.504631042480469,-2.158403158187866
1744304522.671,-0.6269419193267822,9.590775489807129,-2.1105449199676514
1744304522.671,-0.5599405169487,9.629061698913574,-2.072258472442627
1744304522.671,-0.5599405169487,9.705635070800781,-1.8664683103561401
1744304522.671,-0.6173703074455261,9.82528018951416,-1.9334697723388672
1744304522.671,-0.5551546812057495,9.830066680908203,-2.0052568912506104
1744304522.671,-0.588655412197113,9.691277503967285,-2.1057591438293457
1744304522.671,-0.5264397859573364,9.676919937133789,-2.0291860103607178
1744304522.671,-0.521653950214386,9.66256332397461,-2.010042905807495
1744304522.746,-0.5120823383331299,9.528559684753418,-2.177546262741089
1744304522.746,-0.5551546812057495,9.55727481842041,-2.3211207389831543
1744304522.746,-0.5455830693244934,9.451987266540527,-2.3929080963134766
1744304522.746,-0.4307234585285187,9.46155834197998,-2.4120514392852783
1744304522.746,-0.36850783228874207,9.346698760986328,-2.536482572555542
1744304522.746,-0.27757734060287476,9.451987266540527,-2.598698139190674
1744304522.746,-0.3350071310997009,9.337127685546875,-2.598698139190674
1744304522.746,-0.4833674430847168,9.408914566040039,-2.5412683486938477
1744304522.821,-0.6365135312080383,9.456772804260254,-2.416837215423584
1744304522.821,-0.6652284264564514,9.504631042480469,-2.445552110671997
1744304522.821,-0.7035149931907654,9.442415237426758,-2.4264087677001953
1744304522.821,-0.7370156645774841,9.466344833374023,-2.3929080963134766
1744304522.821,-0.7178724408149719,9.504631042480469,-2.3785505294799805
1744304522.821,-0.746587336063385,9.585989952087402,-2.3211207389831543
1744304522.821,-0.765730619430542,9.538131713867188,-2.4264087677001953
1744304522.821,-0.7178724408149719,9.4950590133667,-2.4981961250305176
1744304522.895,-0.6604426503181458,9.538131713867188,-2.4838385581970215
1744304522.895,-0.6604426503181458,9.585989952087402,-2.4216229915618896
1744304522.895,-0.6317277550697327,9.499845504760742,-2.445552110671997
1744304522.895,-0.7322298884391785,9.4950590133667,-2.3498356342315674
1744304522.895,-0.9667348861694336,9.456772804260254,-2.263690948486328
1744304522.895,-1.0050214529037476,9.595561027526855,-2.2254045009613037
1744304522.895,-0.9284483194351196,9.585989952087402,-2.263690948486328
1744304522.895,-0.9093050956726074,9.562060356140137,-2.249333620071411
1744304522.969,-0.8566610813140869,9.518988609313965,-2.325906753540039
1744304522.969,-0.7848738431930542,9.56684684753418,-2.3067634105682373
1744304522.969,-0.8327320218086243,9.533346176147461,-2.2876200675964355
1744304522.969,-0.8853759765625,9.404129028320312,-2.268476963043213
1744304522.969,-0.765730619430542,9.47113037109375,-2.3450498580932617
1744304522.969,-0.6508709788322449,9.432844161987305,-2.3929080963134766
1744304522.969,-0.540797233581543,9.46155834197998,-2.3785505294799805
1744304522.969,-0.521653950214386,9.528559684753418,-2.4503378868103027
1744304523.043,-0.5360113978385925,9.528559684753418,-2.4072654247283936
1744304523.043,-0.5312256217002869,9.4950590133667,-2.263690948486328
1744304523.043,-0.5647262930870056,9.595561027526855,-2.354621648788452
1744304523.043,-0.46900999546051025,9.624276161193848,-2.3019776344299316
1744304523.043,-0.521653950214386,9.619490623474121,-2.263690948486328
1744304523.043,-0.4211518168449402,9.542917251586914,-2.3019776344299316
1744304523.043,-0.3015064299106598,9.504631042480469,-2.3833365440368652
1744304523.043,-0.12443122267723083,9.528559684753418,-2.3498356342315674
1744304523.118,-0.15314611792564392,9.442415237426758,-2.2589051723480225
1744304523.118,-0.08614469319581985,9.490273475646973,-2.1871180534362793
1744304523.118,-0.13400284945964813,9.547703742980957,-2.206261157989502
1744304523.118,-0.23929080367088318,9.619490623474121,-2.148831367492676
1744304523.118,-0.15793193876743317,9.614705085754395,-2.2445478439331055
1744304523.118,-0.20579010248184204,9.547703742980957,-2.2445478439331055
1744304523.118,-0.22493335604667664,9.562060356140137,-2.2732627391815186
1744304523.118,-0.3445787727832794,9.600347518920898,-2.354621648788452
1744304523.193,-0.34936457872390747,9.609918594360352,-2.373764753341675
1744304523.193,-0.4211518168449402,9.619490623474121,-2.3211207389831543
1744304523.193,-0.5168681740760803,9.590775489807129,-2.340264081954956
1744304523.193,-0.5790837407112122,9.499845504760742,-2.354621648788452
1744304523.193,-0.6412993669509888,9.394556999206543,-2.402479648590088
1744304523.193,-0.7609447836875916,9.447200775146484,-2.3785505294799805
1744304523.193,-0.7800880670547485,9.432844161987305,-2.340264081954956
1744304523.193,-0.6317277550697327,9.538131713867188,-2.3163349628448486
1744304523.267,-0.6317277550697327,9.485487937927246,-2.479052782058716
1744304523.267,-0.6412993669509888,9.542917251586914,-2.354621648788452
1744304523.267,-0.521653950214386,9.46155834197998,-2.3306925296783447
1744304523.267,-0.6125844717025757,9.595561027526855,-2.3976938724517822
1744304523.267,-0.5168681740760803,9.490273475646973,-2.368978977203369
1744304523.267,-0.43550926446914673,9.332341194152832,-2.3019776344299316
1744304523.267,-0.47858160734176636,9.480701446533203,-2.254119396209717
1744304523.267,-0.5025107264518738,9.576417922973633,-2.28283429145813
1744304523.341,-0.49772489070892334,9.485487937927246,-2.4072654247283936
1744304523.341,-0.4259376525878906,9.456772804260254,-2.5029819011688232
1744304523.341,-0.3015064299106598,9.39934253692627,-2.598698139190674
1744304523.341,-0.2823631465435028,9.475915908813477,-2.5316967964172363
1744304523.341,-0.30629223585128784,9.595561027526855,-2.579555034637451
1744304523.341,-0.2919347882270813,9.571632385253906,-2.565197467803955
1744304523.341,-0.29672059416770935,9.629061698913574,-2.507767677307129
1744304523.341,-0.2632198929786682,9.600347518920898,-2.4694812297821045
1744304523.415,-0.29672059416770935,9.614705085754395,-2.3306925296783447
1744304523.415,-0.2105759084224701,9.528559684753418,-2.3641932010650635
1744304523.415,-0.12921704351902008,9.490273475646973,-2.311549186706543
1744304523.415,-0.07657305896282196,9.361056327819824,-2.4503378868103027
1744304523.415,-0.0909305065870285,9.418486595153809,-2.5316967964172363
1744304523.415,-0.06221561133861542,9.447200775146484,-2.5604116916656494
1744304523.415,-0.047858163714408875,9.389771461486816,-2.579555034637451
1744304523.415,-0.18664683401584625,9.39934253692627,-2.5556259155273438
1744304523.49,-0.30629223585128784,9.518988609313965,-2.507767677307129
1744304523.49,-0.339792937040329,9.490273475646973,-2.5604116916656494
1744304523.49,-0.3924369215965271,9.308412551879883,-2.5556259155273438
1744304523.49,-0.2105759084224701,9.485487937927246,-2.5269110202789307
1744304523.49,-0.22493335604667664,9.523774147033691,-2.5556259155273438
1744304523.49,-0.30629223585128784,9.547703742980957,-2.464695453643799
1744304523.49,-0.24886244535446167,9.624276161193848,-2.4551236629486084
1744304523.49,-0.24407662451267242,9.600347518920898,-2.416837215423584
1744304523.565,-0.3110780417919159,9.609918594360352,-2.354621648788452
1744304523.565,-0.48815324902534485,9.605133056640625,-2.3019776344299316
1744304523.565,-0.7418015003204346,9.605133056640625,-2.28283429145813
1744304523.565,-0.7418015003204346,9.518988609313965,-2.3354783058166504
1744304523.565,-0.8135887384414673,9.480701446533203,-2.5029819011688232
1744304523.565,-0.9093050956726074,9.4950590133667,-2.61305570602417
1744304523.565,-1.0098072290420532,9.490273475646973,-2.5173392295837402
1744304523.565,-1.1342384815216064,9.432844161987305,-2.579555034637451
1744304523.639,-1.0959519147872925,9.423272132873535,-2.6896286010742188
1744304523.639,-0.9763064980506897,9.413700103759766,-2.699200391769409
1744304523.639,-0.8853759765625,9.322770118713379,-2.7997024059295654
1744304523.639,-0.7226582169532776,9.418486595153809,-2.833203077316284
1744304523.639,-0.49772489070892334,9.322770118713379,-2.9193477630615234
1744304523.639,-0.363722026348114,9.21748161315918,-2.852346420288086
1744304523.639,-0.20579010248184204,9.274911880493164,-2.809274196624756
1744304523.639,-0.20579010248184204,9.394556999206543,-2.852346420288086
1744304523.713,-0.12443122267723083,9.380199432373047,-2.8475606441497803
1744304523.713,-0.028714897111058235,9.389771461486816,-2.7087719440460205
1744304523.713,0.03828652948141098,9.442415237426758,-2.703986167907715
1744304523.713,-0.08135887235403061,9.538131713867188,-2.684842824935913
1744304523.713,-0.11964540183544159,9.585989952087402,-2.522125244140625
1744304523.713,-0.12921704351902008,9.509416580200195,-2.4694812297821045
1744304523.713,-0.13400284945964813,9.648205757141113,-2.373764753341675
1744304523.713,-0.0909305065870285,9.667348861694336,-2.2876200675964355
1744304523.787,-0.26800569891929626,9.56684684753418,-2.2397620677948
1744304523.787,-0.3445787727832794,9.523774147033691,-2.053115129470825
1744304523.787,-0.32543548941612244,9.542917251586914,-2.072258472442627
1744304523.787,-0.39722275733947754,9.705635070800781,-2.220618724822998
1744304523.787,-0.382865309715271,9.705635070800781,-2.3450498580932617
1744304523.787,-0.45943835377693176,9.629061698913574,-2.354621648788452
1744304523.787,-0.569512128829956,9.64341926574707,-2.479052782058716
1744304523.787,-0.4833674430847168,9.518988609313965,-2.479052782058716
1744304523.862,-0.3206496834754944,9.394556999206543,-2.579555034637451
1744304523.862,-0.12921704351902008,9.432844161987305,-2.6752712726593018
1744304523.862,0,9.28926944732666,-2.703986167907715
1744304523.862,-0.23450499773025513,9.380199432373047,-2.584340810775757
1744304523.862,-0.45943835377693176,9.37541389465332,-2.4551236629486084
1744304523.862,-0.6460852026939392,9.394556999206543,-2.373764753341675
1744304523.862,-0.6412993669509888,9.538131713867188,-2.3163349628448486
1744304523.862,-0.8375178575515747,9.542917251586914,-2.340264081954956
1744304523.936,-0.8231604099273682,9.499845504760742,-2.3450498580932617
1744304523.936,-0.8901618123054504,9.581204414367676,-2.368978977203369
1744304523.936,-0.9715206623077393,9.595561027526855,-2.488624334335327
1744304523.936,-1.1294525861740112,9.619490623474121,-2.5173392295837402
1744304523.936,-1.0002355575561523,9.571632385253906,-2.4694812297821045
1744304523.936,-0.8518753051757812,9.56684684753418,-2.5891265869140625
1744304523.936,-0.6652284264564514,9.370628356933594,-2.627413034439087
1744304523.936,-0.46900999546051025,9.198338508605957,-2.699200391769409
1744304524.011,-0.5838695764541626,9.356270790100098,-2.6752712726593018
1744304524.011,-0.8375178575515747,9.308412551879883,-2.598698139190674
1744304524.011,-0.9332341551780701,9.394556999206543,-2.4264087677001953
1744304524.011,-0.7848738431930542,9.456772804260254,-2.627413034439087
1744304524.011,-0.48815324902534485,9.4950590133667,-2.6561279296875
1744304524.011,-0.4929390549659729,9.538131713867188,-2.6369848251342773
1744304524.011,-0.49772489070892334,9.413700103759766,-2.7374868392944336
1744304524.011,-0.5790837407112122,9.590775489807129,-2.641770601272583
1744304524.085,-0.45943835377693176,9.485487937927246,-2.627413034439087
1744304524.085,-0.2536482512950897,9.451987266540527,-2.445552110671997
1744304524.085,-0.2010042816400528,9.47113037109375,-2.5173392295837402
1744304524.085,-0.1914326548576355,9.4950590133667,-2.431194543838501
1744304524.085,-0.11964540183544159,9.447200775146484,-2.325906753540039
1744304524.085,-0.028714897111058235,9.55727481842041,-2.254119396209717
1744304524.085,0.0909305065870285,9.504631042480469,-2.488624334335327
1744304524.085,0.14836029708385468,9.447200775146484,-2.550840139389038
1744304524.16,0.10528795421123505,9.39934253692627,-2.3450498580932617
1744304524.16,-0.05264397710561752,9.37541389465332,-2.325906753540039
1744304524.16,-0.14836029708385468,9.39934253692627,-2.4407663345336914
1744304524.16,-0.17707519233226776,9.346698760986328,-2.479052782058716
1744304524.16,-0.20579010248184204,9.432844161987305,-2.6082699298858643
1744304524.16,-0.26800569891929626,9.451987266540527,-2.7422726154327393
1744304524.16,-0.3206496834754944,9.442415237426758,-2.8284173011779785
1744304524.16,-0.44029510021209717,9.562060356140137,-2.7374868392944336
1744304524.234,-0.44986671209335327,9.485487937927246,-2.7853450775146484
1744304524.234,-0.40679436922073364,9.499845504760742,-2.852346420288086
1744304524.234,-0.382865309715271,9.437629699707031,-2.928919553756714
1744304524.234,-0.521653950214386,9.514202117919922,-2.8475606441497803
1744304524.234,-0.6891575455665588,9.581204414367676,-2.8475606441497803
1744304524.234,-0.746587336063385,9.542917251586914,-2.790130853652954
1744304524.234,-0.8901618123054504,9.480701446533203,-2.6369848251342773
1744304524.234,-0.9284483194351196,9.4950590133667,-2.584340810775757
1744304524.308,-0.952377438545227,9.4950590133667,-2.4981961250305176
1744304524.308,-1.043307900428772,9.518988609313965,-2.584340810775757
1744304524.308,-1.043307900428772,9.308412551879883,-2.703986167907715
1744304524.308,-0.7992312908172607,9.260554313659668,-2.579555034637451
1744304524.308,-0.569512128829956,9.31319808959961,-2.6034839153289795
1744304524.308,-0.5934411883354187,9.255768775939941,-2.6561279296875
1744304524.308,-0.6221560835838318,9.327555656433105,-2.459909439086914
1744304524.308,-0.47858160734176636,9.332341194152832,-2.5460541248321533
1744304524.383,-0.39722275733947754,9.485487937927246,-2.593912363052368
1744304524.383,-0.3924369215965271,9.408914566040039,-2.4503378868103027
1744304524.383,-0.36850783228874207,9.480701446533203,-2.584340810775757
1744304524.383,-0.39722275733947754,9.475915908813477,-2.670485496520996
1744304524.383,-0.4450809061527252,9.595561027526855,-2.61305570602417
1744304524.383,-0.44029510021209717,9.590775489807129,-2.6800570487976074
1744304524.383,-0.41636601090431213,9.418486595153809,-2.6369848251342773
1744304524.383,-0.3350071310997009,9.38498592376709,-2.627413034439087
1744304524.457,-0.3350071310997009,9.442415237426758,-2.598698139190674
1744304524.457,-0.2823631465435028,9.437629699707031,-2.4981961250305176
1744304524.457,-0.28714898228645325,9.466344833374023,-2.4503378868103027
1744304524.457,-0.3541503846645355,9.46155834197998,-2.5412683486938477
1744304524.457,-0.382865309715271,9.46155834197998,-2.4503378868103027
1744304524.457,-0.23450499773025513,9.590775489807129,-2.5029819011688232
1744304524.457,-0.16271774470806122,9.547703742980957,-2.550840139389038
1744304524.457,-0.14357449114322662,9.585989952087402,-2.6321988105773926
1744304524.532,-0.19621846079826355,9.600347518920898,-2.6944146156311035
1744304524.532,-0.22014755010604858,9.624276161193848,-2.7949166297912598
1744304524.532,-0.19621846079826355,9.47113037109375,-2.7997024059295654
1744304524.532,-0.30629223585128784,9.490273475646973,-2.7709875106811523
1744304524.532,-0.4737958014011383,9.38498592376709,-2.804488182067871
1744304524.532,-0.5982270240783691,9.351485252380371,-2.8284173011779785
1744304524.532,-0.6077986359596252,9.294054985046387,-2.971991777420044
1744304524.532,-0.6556568145751953,9.265339851379395,-3.0389933586120605
1744304524.606,-0.7800880670547485,9.284482955932617,-2.9193477630615234
1744304524.606,-0.8518753051757812,9.246196746826172,-2.8427748680114746
1744304524.606,-1.0528795719146729,9.260554313659668,-2.7662017345428467
1744304524.606,-0.9428057670593262,9.351485252380371,-2.7566301822662354
1744304524.606,-1.0576653480529785,9.394556999206543,-2.7805593013763428
1744304524.606,-1.0337363481521606,9.408914566040039,-2.732701063156128
1744304524.606,-0.8853759765625,9.466344833374023,-2.718343496322632
1744304524.606,-0.7848738431930542,9.523774147033691,-2.761415958404541
1744304524.68,-0.5264397859573364,9.518988609313965,-2.641770601272583
1744304524.68,-0.339792937040329,9.499845504760742,-2.7279152870178223
1744304524.68,-0.31586387753486633,9.504631042480469,-2.7566301822662354
1744304524.68,-0.4307234585285187,9.624276161193848,-2.7662017345428467
1744304524.68,-0.4833674430847168,9.21748161315918,-2.6369848251342773
1744304524.68,-0.5742979645729065,9.672134399414062,-2.493410348892212
1744304524.68,-0.8853759765625,9.839637756347656,-2.7566301822662354
1744304524.68,-0.7370156645774841,9.356270790100098,-2.493410348892212
1744304524.755,-0.5120823383331299,9.38498592376709,-2.641770601272583
1744304524.755,-0.35893622040748596,9.308412551879883,-2.8427748680114746
1744304524.755,-0.5120823383331299,9.36584186553955,-2.5747690200805664
1744304524.755,-0.708300769329071,9.437629699707031,-2.8140599727630615
1744304524.755,-0.521653950214386,9.361056327819824,-2.866703987121582
1744304524.755,-0.4833674430847168,9.332341194152832,-2.9672060012817383
1744304524.755,-0.5312256217002869,9.064335823059082,-2.7279152870178223
1744304524.755,-0.6604426503181458,9.638633728027344,-2.833203077316284
1744304524.829,-0.8566610813140869,9.56684684753418,-2.9672060012817383
1744304524.829,-0.540797233581543,9.188767433166504,-2.8858470916748047
1744304524.829,-0.4546525478363037,9.456772804260254,-3.0389933586120605
1744304524.829,-0.4307234585285187,9.203125,-3.043779134750366
1744304524.829,-0.7609447836875916,9.437629699707031,-2.718343496322632
1744304524.829,-0.8470894694328308,9.408914566040039,-2.8858470916748047
1744304524.829,-0.765730619430542,9.533346176147461,-2.881061315536499
1744304524.829,-0.7800880670547485,9.36584186553955,-2.9767775535583496
1744304524.904,-0.6891575455665588,9.27969741821289,-2.8714897632598877
1744304524.904,-0.7944455146789551,9.509416580200195,-2.9624202251434326
1744304524.904,-0.7178724408149719,9.480701446533203,-3.02942156791687
1744304524.904,-0.6556568145751953,9.423272132873535,-3.048564910888672
1744304524.904,-0.6173703074455261,9.538131713867188,-2.9049904346466064
1744304524.904,-0.5982270240783691,9.428057670593262,-2.9337053298950195
1744304524.904,-0.6077986359596252,9.456772804260254,-2.699200391769409
1744304524.904,-0.7226582169532776,9.404129028320312,-2.5747690200805664
1744304524.978,-0.7130866050720215,9.341913223266602,-2.593912363052368
1744304524.978,-0.746587336063385,9.337127685546875,-2.6369848251342773
1744304524.978,-0.9428057670593262,9.451987266540527,-2.5173392295837402
1744304524.978,-0.9858781099319458,9.523774147033691,-2.5412683486938477
1744304524.978,-1.0050214529037476,9.475915908813477,-2.536482572555542
1744304524.978,-0.7944455146789551,9.4950590133667,-2.761415958404541
1744304524.978,-0.5742979645729065,9.46155834197998,-2.852346420288086
1744304524.978,-0.5264397859573364,9.380199432373047,-2.8571321964263916
1744304525.052,-0.41636601090431213,9.37541389465332,-2.8762755393981934
1744304525.052,-0.2727915346622467,9.303627014160156,-2.928919553756714
1744304525.052,-0.07178724557161331,9.380199432373047,-2.9145619869232178
1744304525.052,-0.0047858161851763725,9.442415237426758,-2.943276882171631
1744304525.052,0.03828652948141098,9.408914566040039,-2.866703987121582
1744304525.052,-0.014357448555529118,9.361056327819824,-2.732701063156128
1744304525.052,-0.21536172926425934,9.361056327819824,-2.627413034439087
1744304525.052,-0.4259376525878906,9.428057670593262,-2.598698139190674
1744304525.126,-0.6030128598213196,9.423272132873535,-2.522125244140625
1744304525.126,-0.5647262930870056,9.4950590133667,-2.5699832439422607
1744304525.126,-0.540797233581543,9.523774147033691,-2.6465563774108887
1744304525.126,-0.43550926446914673,9.490273475646973,-2.713557720184326
1744304525.126,-0.29672059416770935,9.47113037109375,-2.699200391769409
1744304525.126,-0.22014755010604858,9.451987266540527,-2.699200391769409
1744304525.126,-0.24407662451267242,9.451987266540527,-2.6896286010742188
1744304525.126,-0.3445787727832794,9.571632385253906,-2.627413034439087
1744304525.201,-0.3206496834754944,9.490273475646973,-2.5747690200805664
1744304525.201,-0.24886244535446167,9.428057670593262,-2.5891265869140625
1744304525.201,-0.22971917688846588,9.346698760986328,-2.6609137058258057
1744304525.201,-0.19621846079826355,9.36584186553955,-2.747058391571045
1744304525.201,-0.2823631465435028,9.361056327819824,-2.7709875106811523
1744304525.201,-0.30629223585128784,9.442415237426758,-2.761415958404541
1744304525.201,-0.2727915346622467,9.413700103759766,-2.7949166297912598
1744304525.201,-0.3110780417919159,9.442415237426758,-2.852346420288086
1744304525.276,-0.5072965025901794,9.451987266540527,-2.6752712726593018
1744304525.276,-0.6269419193267822,9.485487937927246,-2.6178414821624756
1744304525.276,-0.5742979645729065,9.456772804260254,-2.7422726154327393
1744304525.276,-0.5503688454627991,9.428057670593262,-2.6082699298858643
1744304525.276,-0.6412993669509888,9.46155834197998,-2.5173392295837402
1744304525.276,-0.7753022313117981,9.523774147033691,-2.4551236629486084
1744304525.276,-0.8566610813140869,9.542917251586914,-2.373764753341675
1744304525.276,-0.8327320218086243,9.55727481842041,-2.3976938724517822
1744304525.35,-0.7226582169532776,9.595561027526855,-2.445552110671997
1744304525.35,-0.708300769329071,9.562060356140137,-2.598698139190674
1744304525.35,-0.6173703074455261,9.547703742980957,-2.6609137058258057
1744304525.35,-0.6843717098236084,9.451987266540527,-2.593912363052368
1744304525.35,-0.6077986359596252,9.394556999206543,-2.6226272583007812
1744304525.35,-0.46900999546051025,9.351485252380371,-2.7566301822662354
1744304525.35,-0.12921704351902008,9.284482955932617,-2.7518444061279297
1744304525.35,0.01914326474070549,9.246196746826172,-2.7231295108795166
1744304525.424,-0.11485958844423294,9.341913223266602,-2.5699832439422607
1744304525.424,-0.16271774470806122,9.317984580993652,-2.593912363052368
1744304525.424,-0.13878867030143738,9.322770118713379,-2.522125244140625
1744304525.424,-0.0047858161851763725,9.4950590133667,-2.6656997203826904
1744304525.424,0.23929080367088318,9.533346176147461,-2.699200391769409
1744304525.424,0.181861013174057,9.523774147033691,-2.684842824935913
1744304525.424,0.047858163714408875,9.47113037109375,-2.6561279296875
1744304525.424,-0.11964540183544159,9.437629699707031,-2.5029819011688232
1744304525.498,-0.3302213251590729,9.361056327819824,-2.565197467803955
1744304525.498,-0.3206496834754944,9.46155834197998,-2.5699832439422607
1744304525.498,-0.2823631465435028,9.533346176147461,-2.5556259155273438
1744304525.498,-0.24407662451267242,9.47113037109375,-2.4120514392852783
1744304525.498,-0.2105759084224701,9.442415237426758,-2.4216229915618896
1744304525.498,-0.13878867030143738,9.47113037109375,-2.4503378868103027
1744304525.498,-0.15793193876743317,9.428057670593262,-2.4838385581970215
1744304525.498,-0.1722893863916397,9.404129028320312,-2.565197467803955
1744304525.573,-0.11485958844423294,9.466344833374023,-2.4503378868103027
1744304525.573,-0.047858163714408875,9.499845504760742,-2.5269110202789307
1744304525.573,-0.07657305896282196,9.47113037109375,-2.6034839153289795
1744304525.573,0.028714897111058235,9.394556999206543,-2.6465563774108887
1744304525.573,-0.023929081857204437,9.39934253692627,-2.7231295108795166
1744304525.573,-0.07178724557161331,9.37541389465332,-2.6465563774108887
1744304525.573,-0.13400284945964813,9.466344833374023,-2.5891265869140625
1744304525.573,-0.15314611792564392,9.442415237426758,-2.6226272583007812
1744304525.648,-0.15793193876743317,9.442415237426758,-2.5699832439422607
1744304525.648,-0.05742979422211647,9.317984580993652,-2.641770601272583
1744304525.648,-0.1005021408200264,9.241411209106445,-2.6178414821624756
1744304525.648,-0.11007377505302429,9.231839179992676,-2.5412683486938477
1744304525.648,-0.22971917688846588,9.877924919128418,-2.536482572555542
1744304525.648,-0.23929080367088318,9.600347518920898,-2.6226272583007812
1744304525.648,-0.10528795421123505,9.475915908813477,-2.522125244140625
1744304525.648,-0.11964540183544159,9.55727481842041,-2.6609137058258057
1744304525.722,-0.24407662451267242,9.47113037109375,-2.5604116916656494
1744304525.722,-0.3302213251590729,9.408914566040039,-2.522125244140625
1744304525.722,-0.2010042816400528,9.380199432373047,-2.6609137058258057
1744304525.722,-0.09571632742881775,9.322770118713379,-2.747058391571045
1744304525.722,-0.13400284945964813,9.183980941772461,-2.6800570487976074
1744304525.722,-0.3110780417919159,9.337127685546875,-2.5699832439422607
1744304525.722,-0.6030128598213196,9.782208442687988,-2.684842824935913
1744304525.722,-0.5838695764541626,9.394556999206543,-2.6752712726593018
1744304525.796,-0.45943835377693176,9.36584186553955,-2.4981961250305176
1744304525.796,-0.6700142621994019,9.55727481842041,-2.5029819011688232
1744304525.796,-1.072022795677185,9.657776832580566,-2.4264087677001953
1744304525.796,-1.1294525861740112,9.528559684753418,-2.493410348892212
1744304525.796,-0.7705163955688477,9.413700103759766,-2.565197467803955
1744304525.796,-0.6843717098236084,9.466344833374023,-2.6561279296875
1744304525.796,-0.8805902004241943,9.528559684753418,-2.6752712726593018
1744304525.796,-0.8901618123054504,9.518988609313965,-2.6800570487976074
1744304525.87,-0.6317277550697327,9.475915908813477,-2.747058391571045
1744304525.87,-0.4833674430847168,9.356270790100098,-2.804488182067871
1744304525.87,-0.5072965025901794,9.408914566040039,-2.7709875106811523
1744304525.87,-0.6030128598213196,9.389771461486816,-2.8906328678131104
1744304525.87,-0.5647262930870056,9.341913223266602,-2.818845748901367
1744304525.87,-0.6700142621994019,9.322770118713379,-2.718343496322632
1744304525.87,-0.8423036336898804,9.356270790100098,-2.6944146156311035
1744304525.87,-0.8758043646812439,9.361056327819824,-2.6656997203826904
1744304525.945,-0.8327320218086243,9.303627014160156,-2.6513421535491943
1744304525.945,-0.7513731122016907,9.423272132873535,-2.6944146156311035
1744304525.945,-0.6269419193267822,9.38498592376709,-2.761415958404541
1744304525.945,-0.38765111565589905,9.456772804260254,-2.7279152870178223
1744304525.945,-0.32543548941612244,9.490273475646973,-2.7279152870178223
1744304525.945,-0.2919347882270813,9.490273475646973,-2.670485496520996
1744304525.945,-0.2536482512950897,9.514202117919922,-2.6369848251342773
1744304525.945,-0.3206496834754944,9.499845504760742,-2.6321988105773926
1744304526.02,-0.46900999546051025,9.475915908813477,-2.598698139190674
1744304526.02,-0.4737958014011383,9.480701446533203,-2.507767677307129
1744304526.02,-0.4259376525878906,9.442415237426758,-2.684842824935913
1744304526.02,-0.31586387753486633,9.394556999206543,-2.7853450775146484
1744304526.02,-0.48815324902534485,9.480701446533203,-2.7805593013763428
1744304526.02,-0.6125844717025757,9.475915908813477,-2.732701063156128
1744304526.02,-0.7513731122016907,9.538131713867188,-2.7374868392944336
1744304526.02,-0.8183745741844177,9.499845504760742,-2.6896286010742188
1744304526.094,-0.8183745741844177,9.423272132873535,-2.6800570487976074
1744304526.094,-0.9428057670593262,9.447200775146484,-2.6561279296875
1744304526.094,-1.0624512434005737,9.4950590133667,-2.7374868392944336
1744304526.094,-1.0528795719146729,9.451987266540527,-2.804488182067871
1744304526.094,-0.7322298884391785,9.351485252380371,-2.866703987121582
1744304526.094,-0.6365135312080383,9.274911880493164,-2.9049904346466064
1744304526.094,-0.6604426503181458,9.294054985046387,-2.98634934425354
1744304526.094,-0.49772489070892334,9.337127685546875,-3.0102784633636475
1744304526.168,-0.5742979645729065,9.39934253692627,-2.8714897632598877
1744304526.168,-0.5168681740760803,9.380199432373047,-2.8475606441497803
1744304526.168,-0.569512128829956,9.332341194152832,-2.747058391571045
1744304526.168,-0.6365135312080383,9.428057670593262,-2.6561279296875
1744304526.168,-0.5360113978385925,9.351485252380371,-2.6226272583007812
1744304526.168,-0.4546525478363037,9.337127685546875,-2.684842824935913
1744304526.168,-0.5455830693244934,9.499845504760742,-2.684842824935913
1744304526.168,-0.5934411883354187,9.490273475646973,-2.7087719440460205
1744304526.243,-0.49772489070892334,9.437629699707031,-2.7566301822662354
1744304526.243,-0.3445787727832794,9.408914566040039,-2.809274196624756
1744304526.243,-0.23450499773025513,9.428057670593262,-2.833203077316284
1744304526.243,-0.3206496834754944,9.46155834197998,-2.8762755393981934
1744304526.243,-0.521653950214386,9.590775489807129,-2.837989091873169
1744304526.243,-0.6604426503181458,9.518988609313965,-2.7853450775146484
1744304526.243,-0.8279461860656738,9.576417922973633,-2.8475606441497803
1744304526.243,-0.8853759765625,9.490273475646973,-2.8858470916748047
1744304526.317,-0.9140908718109131,9.447200775146484,-2.909776210784912
1744304526.317,-0.9140908718109131,9.341913223266602,-2.9959208965301514
1744304526.317,-0.9858781099319458,9.298840522766113,-2.9815635681152344
1744304526.317,-0.9858781099319458,9.203125,-2.9767775535583496
1744304526.317,-1.0385221242904663,9.246196746826172,-2.8762755393981934
1744304526.317,-0.8949476480484009,9.270126342773438,-2.8571321964263916
1744304526.317,-0.8088029623031616,9.236625671386719,-2.804488182067871
1744304526.317,-0.9284483194351196,9.39934253692627,-2.837989091873169
1744304526.392,-0.8710185289382935,9.475915908813477,-2.7949166297912598
1744304526.392,-0.6987291574478149,9.533346176147461,-2.8762755393981934
1744304526.392,-0.521653950214386,9.509416580200195,-2.7853450775146484
1744304526.392,-0.588655412197113,9.466344833374023,-2.775773286819458
1744304526.392,-0.679585874080658,9.605133056640625,-2.6896286010742188
1744304526.392,-0.7370156645774841,8.68147087097168,-2.6321988105773926
1744304526.392,-0.7370156645774841,8.786758422851562,-2.2732627391815186
1744304526.392,-0.9428057670593262,9.394556999206543,-2.5412683486938477
1744304526.466,-0.9763064980506897,9.528559684753418,-2.598698139190674
1744304526.466,-0.6077986359596252,9.624276161193848,-2.818845748901367
1744304526.466,-0.014357448555529118,9.31319808959961,-3.1012089252471924
1744304526.466,0.06700142472982407,9.116979598999023,-2.971991777420044
1744304526.466,-0.4307234585285187,9.571632385253906,-2.866703987121582
1744304526.466,-0.6173703074455261,8.643183708190918,-2.703986167907715
1744304526.466,0.1005021408200264,6.834145545959473,-2.416837215423584
1744304526.466,0.3350071310997009,9.140909194946289,-2.703986167907715
1744304526.54,-0.8183745741844177,11.481172561645508,-3.7760090827941895
1744304526.54,-0.4737958014011383,10.3804349899292,-3.7425081729888916
1744304526.54,0.9093050956726074,10.25121784210205,-3.7712230682373047
1744304526.54,1.0624512434005737,9.629061698913574,-3.6085054874420166
1744304526.54,-0.2536482512950897,9.049978256225586,-2.1201164722442627
1744304526.54,-1.1820966005325317,8.944690704345703,-2.0004711151123047
1744304526.54,-0.5264397859573364,8.059314727783203,-2.2110471725463867
1744304526.54,0.2632198929786682,8.15024471282959,-2.6082699298858643
1744304526.615,0.2536482512950897,8.399106979370117,-2.9672060012817383
1744304526.615,-0.07657305896282196,9.7391357421875,-3.139495372772217
1744304526.615,-0.21536172926425934,10.892518043518066,-3.6563634872436523
1744304526.615,-0.028714897111058235,10.72022819519043,-3.6276485919952393
1744304526.615,0.09571632742881775,10.059785842895508,-3.254354953765869
1744304526.615,-0.04307234659790993,9.428057670593262,-2.833203077316284
1744304526.615,-0.5503688454627991,9.203125,-2.479052782058716
1744304526.615,-0.6125844717025757,8.872902870178223,-2.3929080963134766
1744304526.689,-0.14357449114322662,8.844188690185547,-2.703986167907715
1744304526.689,0.39722275733947754,9.083478927612305,-3.1155662536621094
1744304526.689,0.47858160734176636,9.294054985046387,-3.2495691776275635
1744304526.689,0.11964540183544159,9.815709114074707,-3.211282730102539
1744304526.689,-0.1005021408200264,9.873138427734375,-3.1586387157440186
1744304526.689,-0.37807947397232056,9.466344833374023,-3.0389933586120605
1744304526.689,-0.6652284264564514,9.528559684753418,-2.7949166297912598
1744304526.689,-1.0528795719146729,9.648205757141113,-2.641770601272583
1744304526.764,-1.3256710767745972,9.576417922973633,-2.5269110202789307
1744304526.764,-1.0672370195388794,9.255768775939941,-2.5460541248321533
1744304526.764,-0.6700142621994019,9.102622032165527,-2.703986167907715
1744304526.764,-0.6030128598213196,9.337127685546875,-2.8427748680114746
1744304526.764,-0.8375178575515747,9.442415237426758,-3.034207344055176
1744304526.764,-0.6269419193267822,9.351485252380371,-3.043779134750366
1744304526.764,-0.43550926446914673,9.298840522766113,-3.043779134750366
1744304526.764,-0.29672059416770935,9.27969741821289,-3.0820655822753906
1744304526.838,-0.4211518168449402,9.394556999206543,-3.0868513584136963
1744304526.838,-0.4833674430847168,9.413700103759766,-3.1921393871307373
1744304526.838,-0.3350071310997009,9.346698760986328,-3.1777820587158203
1744304526.838,-0.4211518168449402,9.270126342773438,-2.9672060012817383
1744304526.838,-0.5742979645729065,9.36584186553955,-2.8571321964263916
1744304526.838,-0.7848738431930542,9.322770118713379,-2.809274196624756
1744304526.838,-0.9140908718109131,9.255768775939941,-2.837989091873169
1744304526.838,-0.6125844717025757,9.236625671386719,-2.9815635681152344
1744304526.912,-0.382865309715271,9.174409866333008,-3.2208542823791504
1744304526.912,-0.23450499773025513,9.207910537719727,-3.163424491882324
1744304526.912,-0.11964540183544159,9.423272132873535,-3.4745025634765625
1744304526.912,0,9.447200775146484,-3.6420061588287354
1744304526.912,-0.03350071236491203,9.418486595153809,-3.5319323539733887
1744304526.912,-0.11007377505302429,9.341913223266602,-3.364428758621216
1744304526.912,-0.13878867030143738,9.327555656433105,-3.182567834854126
1744304526.912,-0.181861013174057,9.332341194152832,-3.1586387157440186
1744304526.987,-0.2105759084224701,9.21748161315918,-2.98634934425354
1744304526.987,-0.09571632742881775,9.078693389892578,-2.9528486728668213
1744304526.987,-0.11007377505302429,9.064335823059082,-2.9049904346466064
1744304526.987,-0.18664683401584625,9.207910537719727,-2.938491106033325
1744304526.987,-0.3015064299106598,9.265339851379395,-2.98634934425354
1744304526.987,-0.4211518168449402,9.418486595153809,-2.928919553756714
1744304526.987,-0.5072965025901794,9.418486595153809,-2.9193477630615234
1744304526.987,-0.5934411883354187,9.432844161987305,-2.895418882369995
1744304527.061,-0.6173703074455261,9.509416580200195,-2.928919553756714
1744304527.061,-0.6700142621994019,9.380199432373047,-2.928919553756714
1744304527.061,-0.708300769329071,9.341913223266602,-2.9049904346466064
1744304527.061,-0.7896596789360046,9.303627014160156,-2.943276882171631
1744304527.061,-0.8853759765625,9.270126342773438,-2.971991777420044
1744304527.061,-0.9667348861694336,9.255768775939941,-3.0533506870269775
1744304527.061,-0.8614469170570374,9.394556999206543,-3.0868513584136963
1744304527.061,-0.7992312908172607,9.346698760986328,-3.1873536109924316
1744304527.136,-0.6748000979423523,9.499845504760742,-3.1586387157440186
1744304527.136,-0.5982270240783691,9.456772804260254,-3.0533506870269775
1744304527.136,-0.43550926446914673,9.322770118713379,-3.0677082538604736
1744304527.136,-0.3110780417919159,9.322770118713379,-3.000706672668457
1744304527.136,-0.2105759084224701,9.38498592376709,-2.9767775535583496
1744304527.136,-0.181861013174057,9.437629699707031,-2.9480626583099365
1744304527.136,0.023929081857204437,9.428057670593262,-2.9145619869232178
1744304527.136,0.1722893863916397,9.533346176147461,-2.900204658508301
1744304527.21,0.23929080367088318,9.585989952087402,-2.7566301822662354
1744304527.21,0.22971917688846588,9.581204414367676,-2.8427748680114746
1744304527.21,0.13878867030143738,9.518988609313965,-2.8140599727630615
1744304527.21,0.07178724557161331,9.418486595153809,-2.823631525039673
1744304527.21,-0.2010042816400528,9.317984580993652,-2.7949166297912598
1744304527.21,-0.32543548941612244,9.265339851379395,-2.895418882369995
1744304527.21,-0.4546525478363037,9.298840522766113,-3.0533506870269775
1744304527.21,-0.4450809061527252,9.28926944732666,-3.1586387157440186
1744304527.285,-0.5025107264518738,9.250982284545898,-3.3213565349578857
1744304527.285,-0.4450809061527252,9.207910537719727,-3.3835721015930176
1744304527.285,-0.5264397859573364,9.179195404052734,-3.35964298248291
1744304527.285,-0.6748000979423523,9.145694732666016,-3.2830698490142822
1744304527.285,-0.8231604099273682,9.155266761779785,-3.0724940299987793
1744304527.285,-0.9810923337936401,9.246196746826172,-3.0102784633636475
1744304527.285,-1.1150951385498047,9.27969741821289,-3.0102784633636475
1744304527.285,-1.0624512434005737,9.246196746826172,-3.0389933586120605
1744304527.359,-1.139024257659912,9.250982284545898,-3.019850015640259
1744304527.359,-1.0289504528045654,9.188767433166504,-3.058136463165283
1744304527.359,-0.9667348861694336,9.064335823059082,-2.9049904346466064
1744304527.359,-1.1198810338974,9.485487937927246,-3.000706672668457
1744304527.359,-1.2586696147918701,8.825044631958008,-2.8858470916748047
1744304527.359,-0.5599405169487,7.609447956085205,-2.6465563774108887
1744304527.359,-0.49772489070892334,8.22203254699707,-3.1442811489105225
1744304527.359,-1.3831008672714233,11.792250633239746,-3.3883578777313232
1744304527.433,-2.3019776344299316,13.132279396057129,-3.5606472492218018
1744304527.433,-0.7848738431930542,9.743921279907227,-3.603719472885132
1744304527.433,1.0337363481521606,9.308412551879883,-3.7137932777404785
1744304527.433,0.4211518168449402,9.432844161987305,-2.713557720184326
1744304527.433,-1.1581674814224243,8.001884460449219,-1.2490980625152588
1744304527.433,-0.6652284264564514,7.336656093597412,-2.325906753540039
1744304527.433,0.8040171265602112,7.580732822418213,-3.0724940299987793
1744304527.433,0.5264397859573364,9.030835151672363,-2.881061315536499
1744304527.507,-0.5599405169487,10.098072052001953,-3.469716787338257
1744304527.507,-0.540797233581543,9.99278450012207,-3.7616515159606934
1744304527.507,-0.06221561133861542,9.657776832580566,-3.5941479206085205
1744304527.507,-0.18664683401584625,9.729564666748047,-3.0246357917785645
1744304527.507,-1.2251689434051514,9.973641395568848,-2.6034839153289795
1744304527.507,-1.5266753435134888,9.01169204711914,-2.163188934326172
1744304527.507,-0.9140908718109131,8.619255065917969,-2.2445478439331055
1744304527.507,-0.3350071310997009,9.126551628112793,-2.866703987121582
1744304527.582,-0.4020085632801056,9.514202117919922,-3.211282730102539
1744304527.582,-0.25843408703804016,9.361056327819824,-3.5032174587249756
1744304527.582,0.22971917688846588,9.174409866333008,-3.7760090827941895
1744304527.582,0.2823631465435028,9.27969741821289,-3.737722396850586
1744304527.582,-0.4450809061527252,9.337127685546875,-3.2495691776275635
1744304527.582,-1.1246668100357056,9.337127685546875,-2.9959208965301514
1744304527.582,-1.201239824295044,9.317984580993652,-2.8475606441497803
1744304527.582,-1.1533817052841187,9.28926944732666,-2.7805593013763428
1744304527.657,-1.239526391029358,9.404129028320312,-2.900204658508301
1744304527.657,-1.268241286277771,9.619490623474121,-3.105994701385498
1744304527.657,-1.0624512434005737,9.743921279907227,-3.2687125205993652
1744304527.657,-0.7035149931907654,9.619490623474121,-3.3357138633728027
1744304527.657,-0.5072965025901794,9.447200775146484,-3.2782840728759766
1744304527.657,-0.5838695764541626,9.236625671386719,-3.163424491882324
1744304527.657,-0.6269419193267822,9.169623374938965,-3.105994701385498
1744304527.657,-0.3110780417919159,9.10740852355957,-3.1299238204956055
1744304527.731,0.009571632370352745,9.069121360778809,-3.287855625152588
1744304527.731,0.27757734060287476,8.94947624206543,-3.35964298248291
1744304527.731,0.21536172926425934,8.877689361572266,-3.2782840728759766
1744304527.731,-0.13878867030143738,9.169623374938965,-3.0389933586120605
1744304527.731,-0.5120823383331299,9.337127685546875,-2.957634449005127
1744304527.731,-0.8423036336898804,9.332341194152832,-2.641770601272583
1744304527.731,-1.019378900527954,9.466344833374023,-2.7949166297912598
1744304527.731,-0.8710185289382935,9.432844161987305,-2.8475606441497803
1744304527.805,-0.6748000979423523,9.36584186553955,-3.0102784633636475
1744304527.805,-0.5120823383331299,9.356270790100098,-3.2064969539642334
1744304527.805,-0.4259376525878906,9.308412551879883,-3.3883578777313232
1744304527.805,-0.3206496834754944,9.246196746826172,-3.3404996395111084
1744304527.805,-0.37807947397232056,9.155266761779785,-3.2495691776275635
1744304527.805,-0.5168681740760803,9.270126342773438,-3.2160685062408447
1744304527.805,-0.5647262930870056,9.241411209106445,-3.16821026802063
1744304527.805,-0.4833674430847168,9.207910537719727,-3.1155662536621094
1744304527.879,-0.45943835377693176,9.380199432373047,-3.0677082538604736
1744304527.879,-0.2823631465435028,9.36584186553955,-3.0677082538604736
1744304527.879,-0.24407662451267242,9.389771461486816,-3.0054924488067627
1744304527.879,-0.11007377505302429,9.456772804260254,-3.0820655822753906
1744304527.879,0.01914326474070549,9.404129028320312,-3.196925163269043
1744304527.879,-0.03828652948141098,9.437629699707031,-3.1490671634674072
1744304527.879,-0.15314611792564392,9.499845504760742,-3.0102784633636475
1744304527.879,-0.22014755010604858,9.509416580200195,-2.8714897632598877
1744304527.954,-0.25843408703804016,9.466344833374023,-2.8475606441497803
1744304527.954,-0.339792937040329,9.394556999206543,-2.900204658508301
1744304527.954,-0.47858160734176636,9.370628356933594,-2.9767775535583496
1744304527.954,-0.5838695764541626,9.327555656433105,-3.0389933586120605
1744304527.954,-0.6652284264564514,9.246196746826172,-3.0964231491088867
1744304527.954,-0.8231604099273682,9.265339851379395,-3.1299238204956055
1744304527.954,-0.9858781099319458,9.322770118713379,-3.2017109394073486
1744304527.954,-1.0241646766662598,9.236625671386719,-3.2974274158477783
1744304528.029,-0.8183745741844177,9.164837837219238,-3.364428758621216
1744304528.029,-0.6317277550697327,9.13133716583252,-3.436216115951538
1744304528.029,-0.5503688454627991,9.145694732666016,-3.484074115753174
1744304528.029,-0.6221560835838318,9.040407180786133,-3.5080032348632812
1744304528.029,-0.521653950214386,9.164837837219238,-3.5319323539733887
1744304528.029,-0.27757734060287476,9.260554313659668,-3.694650173187256
1744304528.029,-0.28714898228645325,9.22705364227295,-3.6850783824920654
1744304528.029,-0.36850783228874207,9.169623374938965,-3.5032174587249756
1744304528.103,-0.4546525478363037,9.19355297088623,-3.378786325454712
1744304528.103,-0.41636601090431213,9.27969741821289,-3.3069989681243896
1744304528.103,-0.5503688454627991,9.255768775939941,-3.1921393871307373
1744304528.103,-0.5120823383331299,9.19355297088623,-3.0246357917785645
1744304528.103,-0.363722026348114,9.188767433166504,-3.1155662536621094
1744304528.103,-0.181861013174057,9.10740852355957,-3.2017109394073486
1744304528.103,0.05742979422211647,9.026049613952637,-3.2304258346557617
1744304528.103,0.11007377505302429,9.116979598999023,-3.350071430206299
1744304528.177,-0.03828652948141098,9.19355297088623,-3.330928087234497
1744304528.177,-0.15793193876743317,9.136122703552246,-3.3548572063446045
1744304528.177,-0.2823631465435028,9.231839179992676,-3.450573444366455
1744304528.177,-0.4020085632801056,9.451987266540527,-3.4888598918914795
1744304528.177,-0.5503688454627991,9.389771461486816,-3.4601449966430664
1744304528.177,-0.5264397859573364,9.246196746826172,-3.35964298248291
1744304528.177,-0.5025107264518738,9.183980941772461,-3.350071430206299
1744304528.177,-0.5264397859573364,9.322770118713379,-3.2974274158477783
1744304528.251,-0.6460852026939392,9.418486595153809,-3.259140729904175
1744304528.251,-0.765730619430542,9.408914566040039,-3.259140729904175
1744304528.251,-0.7130866050720215,9.456772804260254,-3.043779134750366
1744304528.251,-0.6317277550697327,9.255768775939941,-3.153852939605713
1744304528.251,-0.4642241597175598,9.13133716583252,-3.196925163269043
1744304528.251,-0.2536482512950897,9.03562068939209,-3.2160685062408447
1744304528.251,0.04307234659790993,9.073907852172852,-3.2974274158477783
1744304528.251,0.2010042816400528,9.21748161315918,-3.3835721015930176
1744304528.326,0.3302213251590729,9.428057670593262,-3.3548572063446045
1744304528.326,0.3302213251590729,9.590775489807129,-3.364428758621216
1744304528.326,0.14836029708385468,9.700849533081055,-3.211282730102539
1744304528.326,0.09571632742881775,9.65299129486084,-2.9528486728668213
1744304528.326,0.17707519233226776,9.600347518920898,-2.8475606441497803
1744304528.326,0.4211518168449402,9.605133056640625,-2.8427748680114746
1744304528.326,0.37807947397232056,9.595561027526855,-2.8714897632598877
1744304528.326,0.39722275733947754,9.456772804260254,-2.866703987121582
1744304528.401,0.2727915346622467,9.451987266540527,-2.8619179725646973
1744304528.401,0.181861013174057,9.418486595153809,-2.9624202251434326
1744304528.401,0.16271774470806122,9.317984580993652,-2.9767775535583496
1744304528.401,0.13400284945964813,9.294054985046387,-2.881061315536499
1744304528.401,-0.1914326548576355,9.356270790100098,-2.775773286819458
1744304528.401,-0.25843408703804016,9.404129028320312,-2.703986167907715
1744304528.401,-0.3110780417919159,9.361056327819824,-2.5699832439422607
1744304528.401,-0.17707519233226776,9.260554313659668,-2.584340810775757
1744304528.475,0.16750356554985046,9.327555656433105,-2.761415958404541
1744304528.475,0.3445787727832794,9.595561027526855,-2.8571321964263916
1744304528.475,0.22971917688846588,9.763065338134766,-2.8475606441497803
1744304528.475,0.2632198929786682,9.729564666748047,-2.7566301822662354
1744304528.475,0.14836029708385468,9.66256332397461,-2.7231295108795166
1744304528.475,0.06700142472982407,9.772636413574219,-2.5891265869140625
1744304528.475,-0.06221561133861542,9.734350204467773,-2.584340810775757
1744304528.475,-0.1722893863916397,9.686491966247559,-2.6369848251342773
1744304528.549,-0.13878867030143738,9.499845504760742,-2.7279152870178223
1744304528.549,-0.12921704351902008,9.356270790100098,-2.881061315536499
1744304528.549,-0.22014755010604858,9.341913223266602,-3.0102784633636475
1744304528.549,-0.3015064299106598,9.346698760986328,-3.0868513584136963
1744304528.549,-0.46900999546051025,9.36584186553955,-3.034207344055176
1744304528.549,-0.5264397859573364,9.475915908813477,-2.938491106033325
1744304528.549,-0.5503688454627991,9.4950590133667,-2.8619179725646973
1744304528.549,-0.6604426503181458,9.480701446533203,-2.6896286010742188
1744304528.623,-0.7370156645774841,9.552489280700684,-2.61305570602417
1744304528.623,-0.7178724408149719,9.590775489807129,-2.493410348892212
1744304528.623,-0.7513731122016907,9.633848190307617,-2.5173392295837402
1744304528.623,-0.6700142621994019,9.585989952087402,-2.402479648590088
1744304528.623,-0.48815324902534485,9.490273475646973,-2.373764753341675
1744304528.623,-0.3924369215965271,9.380199432373047,-2.402479648590088
1744304528.623,-0.17707519233226776,9.38498592376709,-2.4503378868103027
1744304528.623,-0.2823631465435028,9.341913223266602,-2.4407663345336914
1744304528.698,-0.4546525478363037,9.241411209106445,-2.493410348892212
1744304528.698,-0.41636601090431213,9.207910537719727,-2.5556259155273438
1744304528.698,-0.3110780417919159,9.150480270385742,-2.5460541248321533
1744304528.698,-0.1722893863916397,9.088264465332031,-2.598698139190674
1744304528.698,-0.2010042816400528,9.102622032165527,-2.488624334335327
1744304528.698,-0.181861013174057,9.155266761779785,-2.522125244140625
1744304528.698,-0.06221561133861542,9.21748161315918,-2.479052782058716
1744304528.698,-0.014357448555529118,9.294054985046387,-2.4694812297821045
1744304528.773,0.08135887235403061,9.346698760986328,-2.4694812297821045
1744304528.773,0.10528795421123505,9.533346176147461,-2.3211207389831543
1744304528.773,0.08135887235403061,9.624276161193848,-2.254119396209717
1744304528.773,-0.25843408703804016,9.686491966247559,-2.148831367492676
1744304528.773,-0.5360113978385925,9.763065338134766,-1.9861136674880981
1744304528.773,-0.7178724408149719,9.772636413574219,-2.1105449199676514
1744304528.773,-0.679585874080658,9.686491966247559,-2.2254045009613037
1744304528.773,-0.47858160734176636,9.71520709991455,-2.3641932010650635
1744304528.847,-0.23450499773025513,9.763065338134766,-2.340264081954956
1744304528.847,-0.08135887235403061,9.786993980407715,-2.220618724822998
1744304528.847,-0.14357449114322662,9.8444242477417,-2.0770442485809326
1744304528.847,-0.3445787727832794,9.801351547241211,-2.0483293533325195
1744304528.847,-0.44029510021209717,9.767850875854492,-1.7851094007492065
1744304528.847,-0.37807947397232056,9.667348861694336,-1.560176134109497
1744304528.847,-0.1914326548576355,9.480701446533203,-1.4357448816299438
1744304528.847,0.0047858161851763725,9.485487937927246,-1.3687434196472168
1744304528.921,0.05264397710561752,9.56684684753418,-1.2634555101394653
1744304528.921,0.19621846079826355,9.56684684753418,-1.2825987339019775
1744304528.921,0.382865309715271,9.786993980407715,-1.1007376909255981
1744304528.921,0.43550926446914673,9.99278450012207,-1.1677391529083252
1744304528.921,0.588655412197113,10.145930290222168,-1.229954719543457
1744304528.921,0.6173703074455261,10.241646766662598,-1.2778129577636719
1744304528.921,0.7226582169532776,10.27036190032959,-1.1725249290466309
1744304528.921,0.7609447836875916,10.35650634765625,-1.0528795719146729
1744304528.995,0.7705163955688477,10.433079719543457,-0.8040171265602112
1744304528.995,0.8183745741844177,10.471365928649902,-0.48815324902534485
1744304528.995,0.8470894694328308,10.60058307647705,-0.14357449114322662
1744304528.995,0.7561589479446411,10.87816047668457,-0.014357448555529118
1744304528.995,0.679585874080658,11.012163162231445,0.12921704351902008
1744304528.995,0.5838695764541626,10.959519386291504,0.05742979422211647
1744304528.995,0.30629223585128784,11.170095443725586,0.28714898228645325
1744304528.995,0.14357449114322662,11.318455696105957,0.6556568145751953
1744304529.07,0.11964540183544159,11.385457038879395,0.7226582169532776
1744304529.07,-0.7609447836875916,11.801822662353516,-0.44029510021209717
1744304529.07,-0.23450499773025513,11.576889038085938,0.0909305065870285
1744304529.07,0.27757734060287476,12.184687614440918,0.9140908718109131
1744304529.07,-0.5838695764541626,12.37133502960205,0.7753022313117981
1744304529.07,-0.9667348861694336,12.002826690673828,0.6365135312080383
1744304529.07,-0.009571632370352745,10.504866600036621,0.6317277550697327
1744304529.07,-1.5745335817337036,10.150715827941895,-1.560176134109497
1744304529.145,1.799466848373413,9.145694732666016,-0.3732936680316925
1744304529.145,0.08614469319581985,8.006670951843262,-0.4307234585285187
1744304529.145,-1.521889567375183,8.580968856811523,-1.8616825342178345
1744304529.145,-1.1868823766708374,8.30817699432373,-1.6176059246063232
1744304529.145,-0.8375178575515747,7.7673797607421875,-2.1871180534362793
1744304529.145,-0.7322298884391785,7.877453327178955,-2.292405843734741
1744304529.145,-1.0002355575561523,8.226818084716797,-2.3019776344299316
1744304529.145,-0.8758043646812439,8.662327766418457,-1.8042527437210083
1744304529.219,-1.0480937957763672,8.968619346618652,-1.9908995628356934
1744304529.219,-0.7992312908172607,9.528559684753418,-2.057900905609131
1744304529.219,-0.6556568145751953,9.054763793945312,-1.9430413246154785
1744304529.219,-0.7753022313117981,8.600111961364746,-2.0004711151123047
1744304529.219,-0.9715206623077393,8.217246055603027,-1.6606782674789429
1744304529.219,-0.8949476480484009,8.140673637390137,-1.1294525861740112
1744304529.219,-0.4307234585285187,8.078457832336426,-0.9954497814178467
1744304529.219,-0.11007377505302429,7.930097579956055,-1.0672370195388794
1744304529.293,0.22971917688846588,7.934883117675781,-1.454888105392456
1744304529.293,0.6317277550697327,8.188531875610352,-1.1055235862731934
1744304529.293,0.06700142472982407,8.729329109191895,-1.0145930051803589
1744304529.293,-0.04307234659790993,9.394556999206543,-0.6748000979423523
1744304529.293,0.19621846079826355,9.820494651794434,-0.28714898228645325
1744304529.293,0.6843717098236084,9.4950590133667,0.14836029708385468
1744304529.293,1.177310824394226,9.509416580200195,0.44029510021209717
1744304529.293,1.2060257196426392,9.777422904968262,0.6125844717025757
1744304529.368,0.7848738431930542,9.954497337341309,0.8566610813140869
1744304529.368,0.6317277550697327,9.968854904174805,1.5075321197509766
1744304529.368,0.540797233581543,9.753493309020996,2.311549186706543
1744304529.368,0.2010042816400528,9.485487937927246,2.388122320175171
1744304529.368,-0.24407662451267242,9.46155834197998,2.2254045009613037
1744304529.368,-0.5742979645729065,9.71520709991455,1.9143264293670654
1744304529.368,-1.0002355575561523,9.82528018951416,2.014828681945801
1744304529.368,-1.268241286277771,9.581204414367676,2.4503378868103027
1744304529.442,-1.229954719543457,9.973641395568848,2.833203077316284
1744304529.442,-0.9763064980506897,10.279932975769043,2.6321988105773926
1744304529.442,-0.3732936680316925,10.471365928649902,2.5699832439422607
1744304529.442,0.10528795421123505,10.571867942810059,1.7563945055007935
1744304529.442,0.13878867030143738,10.53836727142334,0.49772489070892334
1744304529.442,0.14357449114322662,10.524009704589844,-0.11485958844423294
1744304529.442,0.6843717098236084,10.083714485168457,-0.40679436922073364
1744304529.442,2.852346420288086,9.600347518920898,-1.4309589862823486
1744304529.517,5.154324054718018,9.37541389465332,-2.311549186706543
1744304529.517,4.728386402130127,10.552724838256836,-1.9621846675872803
1744304529.517,3.785580635070801,11.94539737701416,-0.36850783228874207
1744304529.517,4.168446063995361,12.82120132446289,1.7516087293624878
1744304529.517,3.6563634872436523,11.835323333740234,1.1581674814224243
1744304529.517,1.1677391529083252,10.150715827941895,-0.27757734060287476
1744304529.517,-0.765730619430542,8.76761531829834,0.4929390549659729
1744304529.517,-1.7755378484725952,8.001884460449219,0.4211518168449402
1744304529.591,-1.6463208198547363,8.135887145996094,-1.2347406148910522
1744304529.591,-0.27757734060287476,8.58575439453125,-2.8619179725646973
1744304529.591,0.8853759765625,8.992548942565918,-3.991370677947998
1744304529.591,0.8901618123054504,9.485487937927246,-4.680528163909912
1744304529.591,0.6412993669509888,9.624276161193848,-3.2304258346557617
1744304529.591,0.521653950214386,9.576417922973633,-0.9140908718109131
1744304529.591,-0.047858163714408875,9.940139770507812,-0.47858160734176636
1744304529.591,-1.2443121671676636,10.404364585876465,-0.9810923337936401
1744304529.665,-1.966970443725586,10.476151466369629,-1.3160994052886963
1744304529.665,-1.8808257579803467,10.169858932495117,-1.3783150911331177
1744304529.665,-1.1342384815216064,10.021498680114746,-1.7037506103515625
1744304529.665,-0.35893622040748596,9.964069366455078,-2.129688262939453
1744304529.665,0.21536172926425934,10.0885009765625,-2.148831367492676
1744304529.665,0.6125844717025757,9.92099666595459,-1.5458186864852905
1744304529.665,0.8375178575515747,9.638633728027344,-1.5123178958892822
1744304529.665,0.9428057670593262,9.46155834197998,-2.0770442485809326
1744304529.74,0.6939433217048645,9.456772804260254,-2.072258472442627
1744304529.74,0.3015064299106598,9.533346176147461,-2.2876200675964355
1744304529.74,0.13878867030143738,9.370628356933594,-2.8858470916748047
1744304529.74,0.13400284945964813,9.021263122558594,-2.6656997203826904
1744304529.74,0.4020085632801056,8.930333137512207,-3.105994701385498
1744304529.74,0.5264397859573364,9.150480270385742,-3.225640058517456
1744304529.74,0.7178724408149719,9.337127685546875,-2.522125244140625
1744304529.74,0.7370156645774841,9.423272132873535,-2.368978977203369
1744304529.814,0.6030128598213196,9.413700103759766,-2.4981961250305176
1744304529.814,0.2010042816400528,9.341913223266602,-2.4072654247283936
1744304529.814,-0.12443122267723083,9.413700103759766,-2.1823322772979736
1744304529.814,-0.181861013174057,9.389771461486816,-2.1536173820495605
1744304529.814,-0.1005021408200264,9.38498592376709,-2.6896286010742188
1744304529.814,0.22971917688846588,9.255768775939941,-2.6369848251342773
1744304529.814,0.6269419193267822,9.250982284545898,-2.4264087677001953
1744304529.814,1.148595929145813,9.265339851379395,-2.7374868392944336
1744304529.888,1.4979604482650757,9.236625671386719,-3.211282730102539
1744304529.888,1.6176059246063232,9.145694732666016,-3.527146577835083
1744304529.888,1.5506044626235962,9.241411209106445,-3.1777820587158203
1744304529.888,1.4357448816299438,9.404129028320312,-2.8571321964263916
1744304529.888,1.3639576435089111,9.657776832580566,-2.6369848251342773
1744304529.888,0.9763064980506897,9.571632385253906,-2.8427748680114746
1744304529.888,0.5647262930870056,9.413700103759766,-2.4264087677001953
1744304529.888,0.5455830693244934,9.55727481842041,-2.6226272583007812
1744304529.963,0.9571632146835327,9.657776832580566,-2.6944146156311035
1744304529.963,0.7370156645774841,9.528559684753418,-2.6082699298858643
1744304529.963,0.521653950214386,9.250982284545898,-2.4359803199768066
1744304529.963,0.5838695764541626,9.203125,-2.263690948486328
1744304529.963,0.8183745741844177,9.064335823059082,-2.2254045009613037
1744304529.963,0.9188767075538635,9.145694732666016,-2.7805593013763428
1744304529.963,1.1198810338974,9.150480270385742,-2.61305570602417
1744304529.963,1.1294525861740112,9.198338508605957,-2.431194543838501
1744304530.037,1.2634555101394653,9.083478927612305,-2.388122320175171
1744304530.037,1.1868823766708374,8.94947624206543,-2.4694812297821045
1744304530.037,0.8758043646812439,9.126551628112793,-2.5029819011688232
1744304530.037,0.7609447836875916,9.38498592376709,-2.2158329486846924
1744304530.037,0.8327320218086243,9.380199432373047,-2.1105449199676514
1744304530.037,1.0672370195388794,9.504631042480469,-2.115330696105957
1744304530.037,1.1246668100357056,9.466344833374023,-1.7516087293624878
1744304530.037,1.0624512434005737,9.499845504760742,-1.9478272199630737
1744304530.112,0.7753022313117981,9.447200775146484,-1.8281817436218262
1744304530.112,0.7130866050720215,9.428057670593262,-1.8329676389694214
1744304530.112,1.0241646766662598,9.38498592376709,-1.966970443725586
1744304530.112,1.612820029258728,9.480701446533203,-1.8951832056045532
1744304530.112,1.9621846675872803,9.27969741821289,-1.7372512817382812
1744304530.112,2.0004711151123047,9.169623374938965,-2.7949166297912598
1744304530.112,2.1392598152160645,9.174409866333008,-2.311549186706543
1744304530.112,1.8329676389694214,9.322770118713379,-1.7133221626281738
1744304530.186,1.454888105392456,9.504631042480469,-1.7085363864898682
1744304530.186,1.2825987339019775,9.55727481842041,-1.8568966388702393
1744304530.186,1.2251689434051514,9.873138427734375,-1.718108057975769
1744304530.186,1.464459776878357,9.763065338134766,-1.0145930051803589
1744304530.186,1.8186101913452148,9.7391357421875,-0.2919347882270813
1744304530.186,1.8233959674835205,9.892282485961914,-0.34936457872390747
1744304530.186,1.9717562198638916,9.672134399414062,0.6556568145751953
1744304530.186,1.7468229532241821,9.868352890014648,1.9095406532287598
1744304530.26,0.8375178575515747,9.978426933288574,1.7851094007492065
1744304530.26,0.31586387753486633,9.7391357421875,1.6941789388656616
1744304530.26,-0.1005021408200264,9.380199432373047,2.359407424926758
1744304530.26,-0.5312256217002869,8.839402198791504,1.531461238861084
1744304530.26,-0.22493335604667664,9.040407180786133,-0.16271774470806122
1744304530.26,-0.588655412197113,9.605133056640625,-2.2589051723480225
1744304530.26,-0.14836029708385468,9.499845504760742,-3.287855625152588
1744304530.26,0.746587336063385,9.083478927612305,-3.000706672668457
1744304530.335,0.8040171265602112,8.954261779785156,-2.761415958404541
1744304530.335,0.23450499773025513,8.533110618591309,-2.8858470916748047
1744304530.335,-0.2632198929786682,7.791308879852295,-2.7374868392944336
1744304530.335,0.15793193876743317,6.680999279022217,-2.522125244140625
1744304530.335,0.708300769329071,5.953555107116699,-1.1007376909255981
1744304530.335,1.426173210144043,6.216775417327881,-1.416601538658142
1744304530.335,2.7231295108795166,6.81500244140625,-1.5888910293579102
1744304530.335,3.436216115951538,7.441944122314453,-0.8375178575515747
1744304530.41,2.2397620677948,8.145459175109863,-0.7130866050720215
1744304530.41,1.6463208198547363,8.580968856811523,0.2727915346622467
1744304530.41,1.2203831672668457,7.9779558181762695,-1.2490980625152588
1744304530.41,0.8805902004241943,7.772165298461914,-0.39722275733947754
1744304530.41,0.588655412197113,7.2265825271606445,1.0098072290420532
1744304530.41,0.7609447836875916,6.728857517242432,0.18664683401584625
1744304530.41,0.2727915346622467,6.542210578918457,0.48815324902534485
1744304530.41,0.1005021408200264,5.45104455947876,-0.01914326474070549
1744304530.484,-0.06221561133861542,4.580026149749756,-0.0909305065870285
1744304530.484,-0.13400284945964813,3.9722273349761963,-0.5360113978385925
1744304530.484,0.5455830693244934,3.7425081729888916,-0.12443122267723083
1744304530.484,1.679821491241455,4.259376525878906,0.5790837407112122
1744304530.484,2.7997024059295654,5.360114097595215,1.49317467212677
1744304530.484,3.393143653869629,5.398400783538818,0.9475916028022766
1744304530.484,4.699671268463135,6.738429069519043,-0.14836029708385468
1744304530.484,7.1835103034973145,9.758278846740723,0.904519259929657
1744304530.558,6.9107184410095215,13.663505554199219,1.8186101913452148
1744304530.558,5.503688812255859,16.750356674194336,-0.521653950214386
1744304530.558,3.4457876682281494,19.82763671875,-0.6365135312080383
1744304530.558,1.9382555484771729,21.7371768951416,-1.464459776878357
1744304530.558,-2.0818300247192383,24.355018615722656,-2.9911351203918457
1744304530.558,-6.494352340698242,22.555551528930664,-2.402479648590088
1744304530.558,-6.791073322296143,18.947046279907227,-2.6896286010742188
1744304530.558,-3.0389933586120605,14.290447235107422,-2.2876200675964355
1744304530.632,-1.5362470149993896,12.845130920410156,-1.7851094007492065
1744304530.632,0.765730619430542,12.060256958007812,-1.3208853006362915
1744304530.632,3.618077039718628,12.806843757629395,-1.651106595993042
1744304530.632,5.178253173828125,14.003297805786133,-2.2397620677948
1744304530.632,4.938962459564209,14.907817840576172,-2.8427748680114746
1744304530.632,6.365135669708252,17.305511474609375,-0.8040171265602112
1744304530.632,5.848267555236816,16.209558486938477,-0.5072965025901794
1744304530.632,3.7137932777404785,17.066221237182617,0.5934411883354187
1744304530.707,2.6226272583007812,16.06598472595215,-0.8758043646812439
1744304530.707,1.3543859720230103,13.232781410217285,0.4642241597175598
1744304530.707,-1.7755378484725952,9.839637756347656,1.8521108627319336
1744304530.707,-3.163424491882324,8.351249694824219,2.9145619869232178
1744304530.707,-3.464931011199951,8.059314727783203,2.6178414821624756
1744304530.707,-4.101444244384766,7.64773416519165,1.9908995628356934
1744304530.707,-2.8762755393981934,6.384278774261475,3.239997625350952
1744304530.707,-3.0677082538604736,6.412993907928467,3.4266443252563477
1744304530.782,-1.928683876991272,5.943983554840088,3.0820655822753906
1744304530.782,-2.9815635681152344,7.781737327575684,2.5604116916656494
1744304530.782,-1.7851094007492065,7.236154079437256,2.7279152870178223
1744304530.782,-2.4216229915618896,8.470894813537598,2.895418882369995
1744304530.782,-1.9861136674880981,8.647970199584961,2.6513421535491943
1744304530.782,-1.6558923721313477,8.092815399169922,2.1871180534362793
1744304530.782,-1.6654640436172485,8.12631607055664,1.6463208198547363
1744304530.782,-1.3160994052886963,7.097365379333496,1.3448143005371094
1744304530.856,-1.110309362411499,6.992077350616455,0.9475916028022766
1744304530.856,-0.9619490504264832,7.508945465087891,0.8566610813140869
1744304530.856,-0.8375178575515747,7.863095760345459,0.7370156645774841
1744304530.856,-1.9334697723388672,7.867881774902344,0.6317277550697327
1744304530.856,-2.3833365440368652,8.207674980163574,0.6460852026939392
1744304530.856,-2.1057591438293457,8.346463203430176,1.0672370195388794
1744304530.856,-1.8281817436218262,8.92554759979248,1.3687434196472168
1744304530.856,-1.5506044626235962,8.820259094238281,1.6319633722305298
1744304530.93,-0.569512128829956,8.016242027282715,2.014828681945801
1744304530.93,-0.2105759084224701,8.202888488769531,2.10097336769104
1744304530.93,0.4929390549659729,8.088028907775879,2.0339717864990234
1744304530.93,0.708300769329071,8.059314727783203,1.7946810722351074
1744304530.93,2.479052782058716,7.853524208068848,2.0914015769958496
1744304530.93,3.077279806137085,8.557039260864258,2.6561279296875
1744304530.93,3.8477962017059326,8.853759765625,3.2304258346557617
1744304530.93,4.312020301818848,10.002355575561523,2.373764753341675
1744304531.004,5.039464473724365,10.768086433410645,2.2254045009613037
1744304531.004,6.226346969604492,10.949947357177734,1.8808257579803467
1744304531.004,8.035385131835938,10.366077423095703,2.909776210784912
1744304531.004,9.21748161315918,10.691513061523438,2.402479648590088
1744304531.004,9.38498592376709,12.787700653076172,3.000706672668457
1744304531.004,8.700613975524902,14.816886901855469,4.350306987762451
1744304531.004,7.140437602996826,14.185158729553223,5.082536697387695
1744304531.004,6.33642053604126,12.433550834655762,4.752315521240234
1744304531.078,6.441708564758301,11.031306266784668,5.340970993041992
1744304531.078,5.436686992645264,10.433079719543457,5.307470321655273
1744304531.078,4.398165225982666,10.117215156555176,4.259376525878906
1744304531.078,3.6515777111053467,9.332341194152832,2.6896286010742188
1744304531.078,2.368978977203369,8.399106979370117,0.8375178575515747
1744304531.078,0.2105759084224701,8.174174308776855,-1.770751953125
1744304531.078,-3.5797905921936035,10.739371299743652,-3.1729960441589355
1744304531.078,-8.092815399169922,14.051156044006348,-1.7372512817382812
1744304531.153,-7.9683837890625,16.463207244873047,0.7178724408149719
1744304531.153,-2.8284173011779785,15.611331939697266,6.188060283660889
1744304531.153,2.522125244140625,13.807079315185547,9.552489280700684
1744304531.153,5.297898292541504,13.71614933013916,4.259376525878906
1744304531.153,3.196925163269043,13.515145301818848,0.7322298884391785
1744304531.153,2.6465563774108887,8.016242027282715,-2.3976938724517822
1744304531.153,2.2397620677948,3.512789011001587,-7.461087226867676
1744304531.153,1.49317467212677,2.1823322772979736,-9.404129028320312
1744304531.228,-1.517103672027588,2.670485496520996,-7.537660598754883
1744304531.228,-3.407501220703125,7.910953998565674,-4.929390907287598
1744304531.228,-4.498667240142822,10.490509033203125,-2.9528486728668213
1744304531.228,-4.216303825378418,9.423272132873535,-1.7563945055007935
1744304531.228,-1.6989647150039673,8.39432144165039,-1.0385221242904663
1744304531.228,-0.5551546812057495,9.294054985046387,-2.957634449005127
1744304531.228,0.29672059416770935,10.753728866577148,-3.5319323539733887
1744304531.228,1.4596738815307617,10.504866600036621,-2.818845748901367
1744304531.302,1.9238981008529663,9.428057670593262,-2.8284173011779785
1744304531.302,1.3687434196472168,9.155266761779785,-2.9480626583099365
1744304531.302,0.28714898228645325,9.413700103759766,-3.1107804775238037
1744304531.302,-0.20579010248184204,9.303627014160156,-3.302213191986084
1744304531.302,0.4020085632801056,8.647970199584961,-4.072729587554932
1744304531.302,1.1342384815216064,8.049742698669434,-4.647027492523193
1744304531.302,1.1007376909255981,8.025814056396484,-4.857603549957275
1744304531.302,0.2823631465435028,8.413464546203613,-4.101444244384766
1744304531.376,-0.8662327527999878,8.997334480285645,-2.3498356342315674
1744304531.376,-1.7898952960968018,9.696063995361328,-1.3017419576644897
1744304531.376,-1.809038519859314,10.208146095275879,-0.9954497814178467
1744304531.376,-0.9093050956726074,10.002355575561523,-0.8470894694328308
1744304531.376,0.1005021408200264,9.911425590515137,-0.8566610813140869
1744304531.376,1.110309362411499,10.026285171508789,-0.8997334241867065
1744304531.376,2.0483293533325195,10.10285758972168,-1.081594467163086
1744304531.376,2.8140599727630615,9.959283828735352,-1.6415349245071411
1744304531.451,3.3213565349578857,9.877924919128418,-2.2732627391815186
1744304531.451,3.512789011001587,9.944926261901855,-2.790130853652954
1744304531.451,3.3835721015930176,10.184216499328613,-3.0102784633636475
1744304531.451,2.9959208965301514,10.16507339477539,-2.732701063156128
1744304531.451,2.4216229915618896,9.672134399414062,-2.2158329486846924
1744304531.451,1.8233959674835205,9.442415237426758,-1.9717562198638916
1744304531.451,1.2347406148910522,9.317984580993652,-1.8138242959976196
1744304531.451,0.7800880670547485,9.294054985046387,-1.9382555484771729
1744304531.526,0.6365135312080383,9.346698760986328,-2.0196144580841064
1744304531.526,0.708300769329071,9.38498592376709,-2.1057591438293457
1744304531.526,0.6269419193267822,9.466344833374023,-2.3211207389831543
1744304531.526,0.5360113978385925,9.394556999206543,-2.4694812297821045
1744304531.526,0.6077986359596252,9.160052299499512,-3.034207344055176
1744304531.526,0.7800880670547485,9.0978364944458,-3.015064239501953
1744304531.526,0.7705163955688477,9.337127685546875,-2.6178414821624756
1744304531.526,0.6508709788322449,9.241411209106445,-2.7949166297912598
1744304531.6,0.7226582169532776,9.03562068939209,-2.8475606441497803
1744304531.6,0.5790837407112122,8.935118675231934,-2.9145619869232178
1744304531.6,0.49772489070892334,9.150480270385742,-2.818845748901367
1744304531.6,0.5455830693244934,9.260554313659668,-2.6465563774108887
1744304531.6,0.4115802049636841,9.341913223266602,-2.464695453643799
1744304531.6,0.29672059416770935,9.265339851379395,-2.5747690200805664
1744304531.6,0.15314611792564392,9.188767433166504,-2.8427748680114746
1744304531.6,-0.014357448555529118,9.073907852172852,-2.718343496322632
1744304531.674,-0.08135887235403061,9.093050956726074,-2.747058391571045
1744304531.674,-0.014357448555529118,9.136122703552246,-2.761415958404541
1744304531.674,0.0047858161851763725,9.174409866333008,-2.866703987121582
1744304531.674,0.08614469319581985,9.150480270385742,-3.048564910888672
1744304531.674,0.16271774470806122,9.155266761779785,-3.2160685062408447
1744304531.674,0.181861013174057,9.207910537719727,-3.2304258346557617
1744304531.674,0.06700142472982407,9.150480270385742,-3.120352268218994
1744304531.674,-0.15793193876743317,9.198338508605957,-3.0964231491088867
1744304531.748,-0.19621846079826355,9.212696075439453,-3.2304258346557617
1744304531.748,0.014357448555529118,9.246196746826172,-3.4314301013946533
1744304531.748,0.24407662451267242,9.255768775939941,-3.7712230682373047
1744304531.748,0.31586387753486633,9.126551628112793,-3.890868663787842
1744304531.748,-0.15314611792564392,9.27969741821289,-3.7137932777404785
1744304531.748,-0.7944455146789551,9.466344833374023,-3.4553592205047607
1744304531.748,-1.2873845100402832,9.619490623474121,-3.091637372970581
1744304531.748,-1.2921704053878784,9.581204414367676,-3.015064239501953
1744304531.823,-0.9571632146835327,9.581204414367676,-3.4170727729797363
1744304531.823,-0.7178724408149719,9.676919937133789,-3.709007501602173
1744304531.823,-0.4307234585285187,9.796566009521484,-3.6372203826904297
1744304531.823,-0.21536172926425934,9.815709114074707,-3.436216115951538
1744304531.823,-0.3732936680316925,9.796566009521484,-3.4266443252563477
1744304531.823,-0.35893622040748596,9.791779518127441,-3.2639267444610596
1744304531.823,0.22971917688846588,9.81092357635498,-2.9911351203918457
1744304531.823,0.5742979645729065,9.949711799621582,-2.8284173011779785
1744304531.898,0.15793193876743317,10.327791213989258,-2.2110471725463867
1744304531.898,-0.12921704351902008,10.471365928649902,-1.9765421152114868
1744304531.898,0.047858163714408875,10.490509033203125,-2.0052568912506104
1744304531.898,0.48815324902534485,10.275147438049316,-1.8712540864944458
1744304531.898,0.6077986359596252,10.011927604675293,-1.8042527437210083
1744304531.898,0.7130866050720215,9.868352890014648,-1.8186101913452148
1744304531.898,1.4213874340057373,9.31319808959961,-2.3354783058166504
1744304531.898,2.507767677307129,10.509652137756348,-2.6752712726593018
1744304531.972,2.6800570487976074,11.8592529296875,-3.091637372970581
1744304531.972,2.507767677307129,11.342384338378906,-2.593912363052368
1744304531.972,1.9765421152114868,10.519224166870117,-0.6748000979423523
1744304531.972,1.1725249290466309,10.222503662109375,-0.5168681740760803
1744304531.972,0.8088029623031616,10.552724838256836,-1.2538838386535645
1744304531.972,1.3543859720230103,10.993020057678223,-1.5458186864852905
1744304531.972,1.6702498197555542,10.839873313903809,-1.1581674814224243
1744304531.972,1.5888910293579102,10.519224166870117,-0.37807947397232056
1744304532.046,0.8423036336898804,10.366077423095703,0.03350071236491203
1744304532.046,0.21536172926425934,10.098072052001953,0.22971917688846588
1744304532.046,0.1005021408200264,9.964069366455078,0.5934411883354187
1744304532.046,0.014357448555529118,9.74870777130127,0.8375178575515747
1744304532.046,-0.25843408703804016,9.758278846740723,0.9954497814178467
1744304532.046,-0.32543548941612244,9.614705085754395,1.4883887767791748
1744304532.046,-0.48815324902534485,9.447200775146484,2.368978977203369
1744304532.046,-0.03828652948141098,9.38498592376709,2.28283429145813
1744304532.12,0.22014755010604858,9.380199432373047,1.6654640436172485
1744304532.12,0.6317277550697327,8.92554759979248,-0.08135887235403061
1744304532.12,0.21536172926425934,8.915975570678711,-0.41636601090431213
1744304532.12,-0.028714897111058235,9.121766090393066,-0.9475916028022766
1744304532.12,-1.4309589862823486,10.155502319335938,-1.7803236246109009
1744304532.12,-0.3015064299106598,10.069356918334961,-2.072258472442627
1744304532.12,0.6604426503181458,10.887731552124023,-2.0914015769958496
1744304532.12,1.3687434196472168,11.208381652832031,-3.244783401489258
1744304532.195,1.359171748161316,12.141615867614746,-4.28809118270874
1744304532.195,-0.05264397710561752,12.524480819702148,-4.489095687866211
1744304532.195,-0.9810923337936401,12.67284107208252,-4.24501895904541
1744304532.195,-1.1725249290466309,12.524480819702148,-3.7281508445739746
1744304532.195,-0.3445787727832794,12.538838386535645,-2.9959208965301514
1744304532.195,-1.416601538658142,13.103564262390137,-3.1251380443573
1744304532.195,-0.8327320218086243,12.811630249023438,-3.0868513584136963
1744304532.195,-1.6654640436172485,12.203831672668457,-2.6369848251342773
1744304532.269,0.19621846079826355,10.87816047668457,-1.6846072673797607
1744304532.269,-1.2347406148910522,10.476151466369629,-2.3067634105682373
1744304532.269,-0.3541503846645355,9.648205757141113,-2.057900905609131
1744304532.269,0.08614469319581985,9.37541389465332,-2.7853450775146484
1744304532.269,0.9140908718109131,8.973404884338379,-2.670485496520996
1744304532.269,-0.10528795421123505,9.595561027526855,-3.1442811489105225
1744304532.269,0.4833674430847168,9.346698760986328,-2.833203077316284
1744304532.269,-0.3732936680316925,8.82983112335205,-2.8906328678131104
1744304532.344,-2.4838385581970215,9.499845504760742,-1.651106595993042
1744304532.344,0.2919347882270813,9.89706802368164,-1.3400285243988037
1744304532.344,-1.2251689434051514,9.944926261901855,-2.1966896057128906
1744304532.344,-0.6460852026939392,9.121766090393066,-1.359171748161316
1744304532.344,-2.928919553756714,9.351485252380371,-1.4883887767791748
1744304532.344,-2.325906753540039,8.892046928405762,-1.8521108627319336
1744304532.344,-1.359171748161316,9.480701446533203,-1.3783150911331177
1744304532.344,-0.952377438545227,9.006906509399414,-0.4259376525878906
1744304532.418,0.5264397859573364,8.580968856811523,-0.30629223585128784
1744304532.418,-0.14357449114322662,8.848974227905273,-1.3496001958847046
1744304532.418,-1.3783150911331177,9.466344833374023,-1.0624512434005737
1744304532.418,-1.0145930051803589,9.609918594360352,-0.7896596789360046
1744304532.418,-0.7418015003204346,9.480701446533203,-0.4307234585285187
1744304532.418,-0.04307234659790993,9.136122703552246,-0.4020085632801056
1744304532.418,-0.16271774470806122,9.236625671386719,0.23929080367088318
1744304532.418,0.6030128598213196,9.246196746826172,0.37807947397232056
1744304532.493,1.464459776878357,8.547467231750488,0.521653950214386
1744304532.493,0.30629223585128784,9.518988609313965,0.44986671209335327
1744304532.493,0.363722026348114,9.026049613952637,0.5025107264518738
1744304532.493,0.4307234585285187,8.528324127197266,0.923662543296814
1744304532.493,0.181861013174057,8.604897499084473,1.0576653480529785
1744304532.493,-0.01914326474070549,8.695828437805176,0.9858781099319458
1744304532.493,-0.2727915346622467,8.77718734741211,1.1868823766708374
1744304532.493,-0.3206496834754944,8.872902870178223,0.9667348861694336
1744304532.567,-0.15314611792564392,8.915975570678711,0.8135887384414673
1744304532.567,0.03350071236491203,9.112194061279297,0.8279461860656738
1744304532.567,0.22493335604667664,8.982976913452148,0.8470894694328308
1744304532.567,0.5360113978385925,8.968619346618652,0.7130866050720215
1744304532.567,0.6508709788322449,9.030835151672363,0.6700142621994019
1744304532.567,1.1150951385498047,9.145694732666016,0.6556568145751953
1744304532.567,1.4022440910339355,9.437629699707031,0.9332341551780701
1744304532.567,2.014828681945801,9.39934253692627,1.2060257196426392
1744304532.641,2.086615800857544,9.873138427734375,1.2203831672668457
1744304532.641,2.641770601272583,9.629061698913574,0.8088029623031616
1744304532.641,3.8812968730926514,9.174409866333008,1.1246668100357056
1744304532.641,3.991370677947998,8.58575439453125,1.5745335817337036
1744304532.641,3.7329366207122803,8.389535903930664,1.229954719543457
1744304532.641,3.6707210540771484,8.844188690185547,1.268241286277771
1744304532.641,3.6707210540771484,9.27969741821289,1.4692455530166626
1744304532.641,3.4457876682281494,9.538131713867188,1.416601538658142
1744304532.716,3.000706672668457,10.007142066955566,1.201239824295044
1744304532.716,2.340264081954956,10.011927604675293,1.1629533767700195
1744304532.716,2.134474039077759,9.940139770507812,1.6271774768829346
1744304532.716,2.053115129470825,9.724778175354004,2.1249024868011475
1744304532.716,1.7898952960968018,9.987998008728027,2.7949166297912598
1744304532.716,2.1823322772979736,9.538131713867188,3.0724940299987793
1744304532.716,1.876039981842041,9.882710456848145,3.0102784633636475
1744304532.716,1.7659661769866943,9.786993980407715,3.1107804775238037
1744304532.79,1.521889567375183,9.691277503967285,2.7422726154327393
1744304532.79,1.2347406148910522,9.533346176147461,2.3976938724517822
1744304532.79,0.8662327527999878,9.327555656433105,1.8999689817428589
1744304532.79,0.6269419193267822,9.337127685546875,1.6319633722305298
1744304532.79,0.5551546812057495,9.203125,1.2490980625152588
1744304532.79,0.6748000979423523,8.992548942565918,0.8901618123054504
1744304532.79,0.9140908718109131,8.844188690185547,0.6700142621994019
1744304532.79,1.3735291957855225,8.815473556518555,0.5072965025901794
1744304532.865,1.9382555484771729,8.643183708190918,0.2632198929786682
1744304532.865,2.0004711151123047,8.518753051757812,0.009571632370352745
1744304532.865,2.148831367492676,8.30817699432373,-0.41636601090431213
1744304532.865,2.0674726963043213,8.30817699432373,-0.8710185289382935
1744304532.865,1.8521108627319336,8.528324127197266,-1.3448143005371094
1744304532.865,2.086615800857544,9.327555656433105,-2.292405843734741
1744304532.865,0.923662543296814,12.376120567321777,-3.2064969539642334
1744304532.865,-1.7228938341140747,14.721170425415039,-4.292877197265625
1744304532.939,-0.6508709788322449,14.189945220947266,-5.077751159667969
1744304532.939,4.958105564117432,11.820965766906738,1.0050214529037476
1744304532.939,7.1356520652771,12.859488487243652,10.404364585876465
1744304532.939,5.039464473724365,15.367256164550781,7.820023536682129
1744304532.939,6.570925712585449,15.6926908493042,-1.0576653480529785
1744304532.939,6.5804972648620605,11.864038467407227,-4.369450092315674
1744304532.939,1.9143264293670654,6.087558269500732,-1.8856115341186523
1744304532.939,-1.6367491483688354,3.4601449966430664,2.340264081954956
1744304533.013,-7.346227645874023,6.020556926727295,3.780794858932495
1744304533.013,-12.433550834655762,8.289033889770508,0.9475916028022766
1744304533.013,-9.758278846740723,10.480937004089355,-2.0674726963043213
1744304533.013,-0.0909305065870285,10.638869285583496,-0.9619490504264832
1744304533.013,7.173938274383545,8.834616661071777,1.876039981842041
1744304533.013,7.489802360534668,8.466109275817871,0.8614469170570374
1744304533.013,4.268948078155518,9.370628356933594,-2.938491106033325
1744304533.013,1.4022440910339355,10.083714485168457,-4.594383716583252
1744304533.088,1.0241646766662598,10.069356918334961,-4.450809001922607
1744304533.088,2.1201164722442627,9.882710456848145,-4.4938812255859375
1744304533.088,3.034207344055176,9.121766090393066,-4.077515602111816
1744304533.088,2.522125244140625,8.48046588897705,-3.54150390625
1744304533.088,0.7705163955688477,8.624040603637695,-3.766437292098999
1744304533.088,-0.8231604099273682,8.844188690185547,-4.402950763702393
1744304533.088,-1.5123178958892822,8.494823455810547,-3.8525819778442383
1744304533.088,-1.4788172245025635,8.686256408691406,-2.713557720184326
1744304533.162,-0.746587336063385,9.255768775939941,-1.7085363864898682
1744304533.162,0.0047858161851763725,9.82528018951416,-1.4118157625198364
1744304533.162,0.22493335604667664,10.155502319335938,-1.464459776878357
1744304533.162,0.3350071310997009,10.10285758972168,-1.454888105392456
1744304533.162,0.5982270240783691,9.523774147033691,-0.8614469170570374
1744304533.162,0.8231604099273682,9.246196746826172,-0.9093050956726074
1744304533.162,1.0145930051803589,9.169623374938965,-1.3543859720230103
1744304533.162,1.3974583148956299,9.006906509399414,-1.8999689817428589
1744304533.237,1.3735291957855225,9.078693389892578,-2.5699832439422607
1744304533.237,1.0289504528045654,9.179195404052734,-2.7518444061279297
1744304533.237,0.6317277550697327,9.112194061279297,-2.6178414821624756
1744304533.237,0.4546525478363037,8.973404884338379,-2.6226272583007812
1744304533.237,0.6700142621994019,8.9590482711792,-2.6896286010742188
1744304533.237,0.5168681740760803,8.896832466125488,-2.8571321964263916
1744304533.237,0.14357449114322662,8.973404884338379,-3.1777820587158203
1744304533.237,-0.36850783228874207,8.973404884338379,-3.3835721015930176
1744304533.311,-0.7370156645774841,9.093050956726074,-3.345285415649414
1744304533.311,-0.8423036336898804,8.997334480285645,-3.5175747871398926
1744304533.311,-0.8040171265602112,8.906403541564941,-3.6420061588287354
1744304533.311,-0.7896596789360046,8.825044631958008,-3.646791934967041
1744304533.311,-0.8614469170570374,8.872902870178223,-3.632434368133545
1744304533.311,-1.0768086910247803,8.963833808898926,-3.7281508445739746
1744304533.311,-1.3496001958847046,9.049978256225586,-3.694650173187256
1744304533.311,-1.6319633722305298,9.174409866333008,-3.5750045776367188
1744304533.385,-1.6367491483688354,9.136122703552246,-3.4170727729797363
1744304533.385,-1.5506044626235962,9.073907852172852,-3.436216115951538
1744304533.385,-1.416601538658142,9.160052299499512,-3.407501220703125
1744304533.385,-1.3735291957855225,9.231839179992676,-3.3404996395111084
1744304533.385,-1.2730270624160767,9.432844161987305,-3.2352118492126465
1744304533.385,-1.0863802433013916,9.624276161193848,-3.196925163269043
1744304533.385,-0.7130866050720215,9.705635070800781,-2.928919553756714
1744304533.385,-0.3541503846645355,9.767850875854492,-2.7231295108795166
1744304533.459,-0.05742979422211647,9.93056869506836,-2.4072654247283936
1744304533.459,0.13878867030143738,9.99278450012207,-2.086615800857544
1744304533.459,0.48815324902534485,10.241646766662598,-1.9143264293670654
1744304533.459,0.765730619430542,10.60058307647705,-1.8856115341186523
1744304533.459,1.4596738815307617,10.69629955291748,-1.742037057876587
1744304533.459,2.263690948486328,10.763300895690918,-1.8281817436218262
1744304533.459,2.804488182067871,10.748943328857422,-2.0052568912506104
1744304533.459,2.8714897632598877,10.567082405090332,-2.3163349628448486
1744304533.534,2.4838385581970215,10.873373985290527,-2.0818300247192383
1744304533.534,1.9526129961013794,10.844659805297852,-1.7276796102523804
1744304533.534,1.6702498197555542,10.949947357177734,-1.6367491483688354
1744304533.534,1.5888910293579102,10.940375328063965,-1.8568966388702393
1744304533.534,1.7611804008483887,10.844659805297852,-2.014828681945801
1744304533.534,1.809038519859314,10.71065616607666,-1.7898952960968018
1744304533.534,1.521889567375183,10.63408374786377,-1.3160994052886963
1744304533.534,1.1725249290466309,10.53836727142334,-0.7130866050720215
1744304533.609,1.0002355575561523,10.332576751708984,-0.4259376525878906
1744304533.609,1.387886643409729,9.605133056640625,-0.6652284264564514
1744304533.609,3.048564910888672,9.504631042480469,-0.6891575455665588
1744304533.609,4.589597702026367,12.510123252868652,-1.3831008672714233
1744304533.609,4.560883045196533,12.845130920410156,-1.6319633722305298
1744304533.609,4.422094345092773,11.730035781860352,0.2919347882270813
1744304533.609,3.809509754180908,11.648676872253418,2.6321988105773926
1744304533.609,2.4838385581970215,11.045663833618164,4.02008581161499
1744304533.683,1.521889567375183,10.299076080322266,3.905225992202759
1744304533.683,1.9765421152114868,10.299076080322266,3.1107804775238037
1744304533.683,2.5173392295837402,10.246432304382324,3.2639267444610596
1744304533.683,2.713557720184326,10.44265079498291,2.4551236629486084
1744304533.683,2.6513421535491943,9.987998008728027,-1.1294525861740112
1744304533.683,2.4359803199768066,10.07892894744873,-1.6319633722305298
1744304533.683,1.5649619102478027,10.519224166870117,-1.584105134010315
1744304533.683,1.5984625816345215,11.567317962646484,-2.368978977203369
1744304533.757,-0.45943835377693176,13.950654029846191,-4.082301139831543
1744304533.757,-0.6412993669509888,15.367256164550781,-4.52259635925293
1744304533.757,-0.6460852026939392,15.257182121276855,-4.02008581161499
1744304533.757,-4.374236106872559,15.381612777709961,-3.254354953765869
1744304533.757,-2.7566301822662354,13.965011596679688,-1.6750357151031494
1744304533.757,-3.6994359493255615,14.180373191833496,-2.732701063156128
1744304533.757,-3.16821026802063,12.754199981689453,-0.9810923337936401
1744304533.757,-2.98634934425354,11.773107528686523,-0.43550926446914673
1744304533.831,-0.7609447836875916,10.28471851348877,-1.3256710767745972
1744304533.831,-3.316570520401001,10.246432304382324,-2.0052568912506104
1744304533.831,-1.5888910293579102,10.256004333496094,-2.2397620677948
1744304533.831,-2.47426700592041,10.179430961608887,-2.043543577194214
1744304533.831,-0.3110780417919159,9.327555656433105,-1.5075321197509766
1744304533.831,-1.335242748260498,10.476151466369629,-1.7946810722351074
1744304533.831,-0.5312256217002869,10.107644081115723,-2.057900905609131
1744304533.831,-2.909776210784912,9.116979598999023,-3.2687125205993652
1744304533.906,-0.4833674430847168,12.246903419494629,0.023929081857204437
1744304533.906,-1.8664683103561401,8.049742698669434,-1.6032484769821167
1744304533.906,-2.6034839153289795,7.934883117675781,-1.4788172245025635
1744304533.906,-3.618077039718628,7.6908063888549805,-2.2301902770996094
1744304533.906,-4.335949420928955,6.6092119216918945,-1.3304568529129028
1744304533.906,-5.049036026000977,7.370156764984131,-2.0818300247192383
1744304533.906,-5.178253173828125,7.130866050720215,-2.790130853652954
1744304533.906,-5.417543888092041,7.078222274780273,-1.8138242959976196
1744304533.981,-4.627884387969971,6.513495922088623,-1.2108114957809448
1744304533.981,-2.9480626583099365,6.1019158363342285,-1.6271774768829346
1744304533.981,-2.6513421535491943,6.695356845855713,-1.718108057975769
1744304533.981,-2.206261157989502,6.121058940887451,-1.4836030006408691
1744304533.981,-1.8233959674835205,5.97269868850708,-1.3256710767745972
1744304533.981,-1.1868823766708374,6.628355503082275,-0.746587336063385
1744304533.981,-1.2490980625152588,6.757572650909424,-0.3445787727832794
1744304533.981,-0.5934411883354187,7.006434917449951,-0.11007377505302429
1744304534.055,-0.2105759084224701,6.791073322296143,-0.22014755010604858
1744304534.055,0.8758043646812439,6.891575336456299,-0.04307234659790993
1744304534.055,1.1294525861740112,7.059078693389893,-0.16750356554985046
1744304534.055,1.2060257196426392,7.279226303100586,-0.11007377505302429
1744304534.055,1.1342384815216064,8.083243370056152,-0.1722893863916397
1744304534.055,1.6415349245071411,8.413464546203613,0.06221561133861542
1744304534.055,2.2254045009613037,8.504395484924316,0.9954497814178467
1744304534.055,2.2876200675964355,8.94947624206543,1.1533817052841187
1744304534.129,3.134709596633911,8.997334480285645,1.0241646766662598
1744304534.129,3.6228628158569336,9.490273475646973,0.7370156645774841
1744304534.129,4.264162063598633,10.413935661315918,0.05742979422211647
1744304534.129,4.498667240142822,10.916446685791016,-0.3350071310997009
1744304534.129,5.336184978485107,10.973876953125,-0.24407662451267242
1744304534.129,6.470423698425293,10.677155494689941,0.9093050956726074
1744304534.129,7.676449298858643,10.715442657470703,1.612820029258728
1744304534.129,8.016242027282715,12.175116539001465,1.5936768054962158
1744304534.203,7.3605852127075195,14.611096382141113,1.3926725387573242
1744304534.203,6.915504455566406,13.342855453491211,2.2732627391815186
1744304534.203,6.757572650909424,11.940611839294434,2.6561279296875
1744304534.203,5.642477512359619,12.581911087036133,2.5460541248321533
1744304534.203,5.096894264221191,11.557745933532715,2.61305570602417
1744304534.203,2.837989091873169,11.069592475891113,2.479052782058716
1744304534.203,0.4450809061527252,9.609918594360352,2.1536173820495605
1744304534.203,-0.2632198929786682,8.083243370056152,2.0004711151123047
1744304534.278,-1.1294525861740112,7.408443450927734,0.7896596789360046
1744304534.278,-1.9334697723388672,6.590068817138672,-0.11485958844423294
1744304534.278,-2.852346420288086,8.198102951049805,-1.4070299863815308
1744304534.278,-5.7860517501831055,13.160994529724121,-1.8712540864944458
1744304534.278,-8.590539932250977,18.123886108398438,-3.905225992202759
1744304534.278,-3.3357138633728027,17.07579231262207,-1.622391700744629
1744304534.278,4.4268798828125,15.635261535644531,8.241175651550293
1744304534.278,5.436686992645264,16.740785598754883,6.6092119216918945
1744304534.353,2.5699832439422607,16.013341903686523,-2.263690948486328
1744304534.353,-1.2634555101394653,8.896832466125488,-3.6372203826904297
1744304534.353,-3.35964298248291,0.15793193876743317,-1.7946810722351074
1744304534.353,-4.431665897369385,-3.632434368133545,-3.0964231491088867
1744304534.353,-8.791543960571289,-1.9526129961013794,-11.074378967285156
1744304534.353,-12.567553520202637,7.197867393493652,-12.108115196228027
1744304534.353,-2.6944146156311035,13.227995872497559,-5.599404811859131
1744304534.353,7.250511646270752,13.371570587158203,-0.05742979422211647
1744304534.427,10.495294570922852,11.672605514526367,-1.1150951385498047
1744304534.427,8.839402198791504,11.438100814819336,-1.4740313291549683
