                                                                                AngularVelocity                                                                 10.04.2519.43.20104 
Timestamp,GyroX,GyroY,GyroZ
1744304518.952,40.67000198364258,95.62000274658203,-13.369999885559082
1744304518.952,3.5,113.47000122070312,20.860000610351562
1744304518.952,28.90999984741211,84.62999725341797,70.91000366210938
1744304518.952,75.66999816894531,-41.93000030517578,88.69000244140625
1744304518.952,43.88999938964844,-140.35000610351562,65.02999877929688
1744304518.952,46.970001220703125,-50.470001220703125,5.039999961853027
1744304518.952,23.170000076293945,68.25,-45.08000183105469
1744304518.952,28.420000076293945,78.81999969482422,-84.84000396728516
1744304519.026,55.439998626708984,-29.889999389648438,-104.51000213623047
1744304519.026,83.16000366210938,-103.38999938964844,-82.45999908447266
1744304519.026,96.52999877929688,-55.439998626708984,-35.06999969482422
1744304519.026,77.06999969482422,8.75,-9.800000190734863
1744304519.026,50.2599983215332,37.310001373291016,-11.970000267028809
1744304519.026,35.209999084472656,8.329999923706055,-22.469999313354492
1744304519.026,32.54999923706055,-37.099998474121094,-39.060001373291016
1744304519.026,36.33000183105469,-53.619998931884766,-54.7400016784668
1744304519.1,45.220001220703125,-59.150001525878906,-63.209999084472656
1744304519.1,52.150001525878906,-61.67000198364258,-62.790000915527344
1744304519.1,53.34000015258789,-62.650001525878906,-53.54999923706055
1744304519.1,54.11000061035156,-65.59000396728516,-40.18000030517578
1744304519.1,53.54999923706055,-65.5199966430664,-29.260000228881836
1744304519.1,52.9900016784668,-65.87000274658203,-25.829999923706055
1744304519.1,50.189998626708984,-72.23999786376953,-30.65999984741211
1744304519.1,45.150001525878906,-75.94999694824219,-39.970001220703125
1744304519.175,41.09000015258789,-75.66999816894531,-48.22999954223633
1744304519.175,39.40999984741211,-76.51000213623047,-52.0099983215332
1744304519.175,39.7599983215332,-83.44000244140625,-52.08000183105469
1744304519.175,41.02000045776367,-97.58000183105469,-51.45000076293945
1744304519.175,40.95000076293945,-111.93000030517578,-51.17000198364258
1744304519.175,36.88999938964844,-119.3499984741211,-50.81999969482422
1744304519.175,30.309999465942383,-113.68000030517578,-50.61000061035156
1744304519.175,26.950000762939453,-94.8499984741211,-50.88999938964844
1744304519.249,24.219999313354492,-74.69000244140625,-50.81999969482422
1744304519.249,20.93000030517578,-62.58000183105469,-50.61000061035156
1744304519.249,17.219999313354492,-55.02000045776367,-51.2400016784668
1744304519.249,14.420000076293945,-49.630001068115234,-52.63999938964844
1744304519.249,15.050000190734863,-44.17000198364258,-53.619998931884766
1744304519.249,15.539999961853027,-35.349998474121094,-53.900001525878906
1744304519.249,18.690000534057617,-24.639999389648438,-52.5
1744304519.249,22.049999237060547,-17.56999969482422,-50.61000061035156
1744304519.324,25.200000762939453,-17.219999313354492,-46.970001220703125
1744304519.324,29.260000228881836,-31.219999313354492,-42.279998779296875
1744304519.324,28.139999389648438,-41.58000183105469,-36.75
1744304519.324,23.3799991607666,-42.349998474121094,-31.079999923706055
1744304519.324,18.059999465942383,-35.77000045776367,-27.020000457763672
1744304519.324,10.710000038146973,-30.65999984741211,-23.450000762939453
1744304519.324,4.199999809265137,-31.639999389648438,-20.299999237060547
1744304519.324,-0.7699999809265137,-33.11000061035156,-18.1299991607666
1744304519.398,-7.070000171661377,-34.02000045776367,-15.539999961853027
1744304519.398,-12.739999771118164,-36.04999923706055,-12.180000305175781
1744304519.398,-17.639999389648438,-36.33000183105469,-8.050000190734863
1744304519.398,-24.43000030517578,-33.18000030517578,-3.2899999618530273
1744304519.398,-32.7599983215332,-25.969999313354492,1.6100000143051147
1744304519.398,-40.7400016784668,-18.479999542236328,6.929999828338623
1744304519.398,-49.349998474121094,-15.470000267028809,12.739999771118164
1744304519.398,-59.9900016784668,-17.850000381469727,17.850000381469727
1744304519.472,-69.79000091552734,-26.670000076293945,21.489999771118164
1744304519.472,-80.77999877929688,-45.08000183105469,25.549999237060547
1744304519.472,-92.19000244140625,-67.05999755859375,36.33000183105469
1744304519.472,-111.37000274658203,-73.5,48.86000061035156
1744304519.472,-129.2899932861328,-64.95999908447266,57.61000061035156
1744304519.472,-137.1300048828125,-91.3499984741211,69.51000213623047
1744304519.472,-145.52999877929688,-70.7699966430664,78.4000015258789
1744304519.472,-153.50999450683594,-38.290000915527344,87.56999969482422
1744304519.546,-145.6699981689453,-54.529998779296875,97.30000305175781
1744304519.546,-123.83000183105469,-81.2699966430664,104.16000366210938
1744304519.546,-110.18000030517578,-109.12999725341797,111.51000213623047
1744304519.546,-77.27999877929688,-107.7300033569336,113.47000122070312
1744304519.546,-81.2699966430664,-99.12000274658203,127.68000030517578
1744304519.546,-56,-66.56999969482422,109.41000366210938
1744304519.546,-72.94000244140625,-13.369999885559082,111.58000183105469
1744304519.546,-111.72000122070312,41.15999984741211,125.93000030517578
1744304519.621,-126.13999938964844,79.44999694824219,131.8800048828125
1744304519.621,-183.47000122070312,92.75,152.9499969482422
1744304519.621,-171.5,92.33000183105469,165.1999969482422
1744304519.621,-176.5399932861328,111.30000305175781,164.2899932861328
1744304519.621,-165.47999572753906,106.19000244140625,140.55999755859375
1744304519.621,-144.69000244140625,97.72000122070312,116.62000274658203
1744304519.621,-162.88999938964844,115.5,116.34000396728516
1744304519.621,-138.9499969482422,116.69000244140625,120.12000274658203
1744304519.696,-138.11000061035156,96.94999694824219,135.66000366210938
1744304519.696,-131.32000732421875,71.75,138.11000061035156
1744304519.696,-147.55999755859375,47.599998474121094,140.49000549316406
1744304519.696,-132.02000427246094,35.97999954223633,140.6999969482422
1744304519.696,-129.00999450683594,31.639999389648438,138.6699981689453
1744304519.696,-114.7300033569336,24.920000076293945,134.9600067138672
1744304519.696,-111.93000030517578,19.25,144.75999450683594
1744304519.696,-100.23999786376953,19.809999465942383,141.6800079345703
1744304519.77,-105.7699966430664,23.520000457763672,142.8699951171875
1744304519.77,-106.4000015258789,17.989999771118164,141.3300018310547
1744304519.77,-91.84000396728516,17.43000030517578,130.27000427246094
1744304519.77,-98.9800033569336,10.710000038146973,121.87000274658203
1744304519.77,-99.54000091552734,0.3499999940395355,121.94000244140625
1744304519.77,-74.76000213623047,-0.6299999952316284,101.43000030517578
1744304519.77,-77.69999694824219,-2.870000123977661,102.41000366210938
1744304519.77,-70.62999725341797,-0.6299999952316284,103.94999694824219
1744304519.844,-55.93000030517578,1.75,102.9000015258789
1744304519.844,-52.779998779296875,4.760000228881836,97.16000366210938
1744304519.844,-35.560001373291016,10.430000305175781,85.47000122070312
1744304519.844,-30.450000762939453,12.670000076293945,78.26000213623047
1744304519.844,-16.030000686645508,10.220000267028809,67.12999725341797
1744304519.844,-9.029999732971191,10.850000381469727,66.29000091552734
1744304519.844,-5.320000171661377,8.119999885559082,61.529998779296875
1744304519.844,4.059999942779541,5.599999904632568,58.380001068115234
1744304519.918,19.110000610351562,3.2899999618530273,38.779998779296875
1744304519.918,23.030000686645508,4.760000228881836,30.380001068115234
1744304519.918,32.40999984741211,8.260000228881836,25.760000228881836
1744304519.918,42,10.289999961853027,18.059999465942383
1744304519.918,46.689998626708984,11.6899995803833,12.109999656677246
1744304519.918,54.67000198364258,18.1299991607666,6.300000190734863
1744304519.918,63.06999969482422,25.059999465942383,1.3300000429153442
1744304519.918,72.37999725341797,20.860000610351562,-0.6299999952316284
1744304519.993,82.66999816894531,10.640000343322754,-1.9600000381469727
1744304519.993,90.72000122070312,0.9100000262260437,-2.450000047683716
1744304519.993,94.91999816894531,-5.179999828338623,-1.0499999523162842
1744304519.993,91.55999755859375,-1.1200000047683716,-0.9800000190734863
1744304519.993,85.19000244140625,15.399999618530273,0.5600000023841858
1744304519.993,77.27999877929688,30.799999237060547,2.7300000190734863
1744304519.993,71.88999938964844,34.790000915527344,2.6600000858306885
1744304519.993,65.87000274658203,37.65999984741211,-1.8200000524520874
1744304520.068,57.88999938964844,53.47999954223633,-10.079999923706055
1744304520.068,50.470001220703125,62.369998931884766,-18.969999313354492
1744304520.068,36.540000915527344,54.880001068115234,-24.149999618530273
1744304520.068,12.039999961853027,67.9000015258789,-25.200000762939453
1744304520.068,9.520000457763672,40.38999938964844,-21.350000381469727
1744304520.068,23.8700008392334,22.469999313354492,-15.119999885559082
1744304520.068,40.31999969482422,30.450000762939453,-11.40999984741211
1744304520.068,72.66000366210938,12.880000114440918,-8.329999923706055
1744304520.142,87.56999969482422,-9.869999885559082,-9.239999771118164
1744304520.142,85.61000061035156,8.75,-4.96999979019165
1744304520.142,104.6500015258789,-7.420000076293945,-1.6100000143051147
1744304520.142,133.2100067138672,-45.709999084472656,-7.490000247955322
1744304520.142,128.1699981689453,-75.31999969482422,-28
1744304520.142,120.4000015258789,-79.5199966430664,-46.060001373291016
1744304520.142,125.93000030517578,-53.47999954223633,-79.87000274658203
1744304520.142,99.12000274658203,24.639999389648438,-89.31999969482422
1744304520.216,79.59000396728516,84.91000366210938,-73.22000122070312
1744304520.216,79.5199966430664,89.87999725341797,-61.040000915527344
1744304520.216,77.62999725341797,73.22000122070312,-55.51000213623047
1744304520.216,83.30000305175781,32.83000183105469,-52.43000030517578
1744304520.216,93.16999816894531,-7,-54.810001373291016
1744304520.216,97.51000213623047,-32.20000076293945,-58.2400016784668
1744304520.216,97.58000183105469,-43.189998626708984,-59.01000213623047
1744304520.216,96.25,-42.06999969482422,-63.84000015258789
1744304520.29,98.9800033569336,-28.280000686645508,-67.05999755859375
1744304520.29,93.37999725341797,-13.300000190734863,-63.42000198364258
1744304520.29,96.94999694824219,-3.0799999237060547,-68.52999877929688
1744304520.29,102.41000366210938,9.800000190734863,-68.80999755859375
1744304520.29,98.3499984741211,21.350000381469727,-65.80000305175781
1744304520.29,96.94999694824219,24.360000610351562,-64.61000061035156
1744304520.29,92.47000122070312,25.270000457763672,-63.279998779296875
1744304520.29,91.91000366210938,21.559999465942383,-62.15999984741211
1744304520.365,92.81999969482422,16.030000686645508,-60.40999984741211
1744304520.365,97.79000091552734,10.640000343322754,-60.130001068115234
1744304520.365,101.77999877929688,9.9399995803833,-64.81999969482422
1744304520.365,104.37000274658203,8.470000267028809,-68.87999725341797
1744304520.365,108.70999908447266,2.450000047683716,-73.22000122070312
1744304520.365,105.84000396728516,0.42000001668930054,-70.48999786376953
1744304520.365,101.8499984741211,-7.909999847412109,-70.06999969482422
1744304520.365,99.88999938964844,-15.960000038146973,-69.37000274658203
1744304520.44,92.33000183105469,-13.440000534057617,-68.94999694824219
1744304520.44,91.3499984741211,-18.40999984741211,-66.36000061035156
1744304520.44,91.3499984741211,-26.809999465942383,-62.650001525878906
1744304520.44,91.7699966430664,-31.989999771118164,-61.459999084472656
1744304520.44,92.05000305175781,-35.70000076293945,-61.459999084472656
1744304520.44,92.68000030517578,-37.72999954223633,-61.599998474121094
1744304520.44,92.88999938964844,-36.68000030517578,-60.689998626708984
1744304520.44,94.36000061035156,-37.17000198364258,-59.43000030517578
1744304520.514,94.1500015258789,-35.13999938964844,-57.61000061035156
1744304520.514,92.75,-28.90999984741211,-56.06999969482422
1744304520.514,89.11000061035156,-27.440000534057617,-55.58000183105469
1744304520.514,84.3499984741211,-26.950000762939453,-53.619998931884766
1744304520.514,78.4000015258789,-25.479999542236328,-50.33000183105469
1744304520.514,71.61000061035156,-30.729999542236328,-47.040000915527344
1744304520.514,63.84000015258789,-41.86000061035156,-45.0099983215332
1744304520.514,55.02000045776367,-46.83000183105469,-43.959999084472656
1744304520.588,50.33000183105469,-56,-43.75
1744304520.588,48.15999984741211,-60.83000183105469,-43.470001220703125
1744304520.588,46.34000015258789,-61.529998779296875,-42.349998474121094
1744304520.588,45.5,-60.130001068115234,-38.9900016784668
1744304520.588,42.77000045776367,-60.619998931884766,-35.560001373291016
1744304520.588,39.40999984741211,-68.66999816894531,-34.5099983215332
1744304520.588,36.470001220703125,-78.88999938964844,-34.86000061035156
1744304520.588,32.970001220703125,-84.91000366210938,-35.42000198364258
1744304520.662,30.65999984741211,-84.84000396728516,-35.90999984741211
1744304520.662,28.420000076293945,-74.41000366210938,-37.099998474121094
1744304520.662,27.15999984741211,-58.2400016784668,-38.5
1744304520.662,26.040000915527344,-46.34000015258789,-39.27000045776367
1744304520.662,23.59000015258789,-44.310001373291016,-39.40999984741211
1744304520.662,20.510000228881836,-44.72999954223633,-39.619998931884766
1744304520.662,18.549999237060547,-42.06999969482422,-40.38999938964844
1744304520.662,17.71000099182129,-35.349998474121094,-41.09000015258789
1744304520.737,18.059999465942383,-26.25,-40.810001373291016
1744304520.737,19.670000076293945,-21.06999969482422,-40.67000198364258
1744304520.737,19.950000762939453,-20.579999923706055,-41.29999923706055
1744304520.737,19.8799991607666,-21.489999771118164,-43.119998931884766
1744304520.737,19.739999771118164,-24.56999969482422,-45.779998779296875
1744304520.737,18.899999618530273,-27.719999313354492,-48.02000045776367
1744304520.737,18.829999923706055,-27.440000534057617,-49.4900016784668
1744304520.737,17.850000381469727,-24.780000686645508,-49.90999984741211
1744304520.812,15.819999694824219,-22.96000099182129,-49.349998474121094
1744304520.812,13.510000228881836,-22.1200008392334,-47.880001068115234
1744304520.812,12.529999732971191,-20.09000015258789,-45.220001220703125
1744304520.812,15.329999923706055,-17.56999969482422,-41.02000045776367
1744304520.812,19.25,-15.470000267028809,-36.81999969482422
1744304520.812,18.899999618530273,-15.399999618530273,-33.810001373291016
1744304520.812,16.940000534057617,-22.399999618530273,-30.940000534057617
1744304520.812,16.450000762939453,-35.13999938964844,-29.260000228881836
1744304520.886,11.199999809265137,-34.58000183105469,-27.93000030517578
1744304520.886,9.520000457763672,-33.040000915527344,-25.829999923706055
1744304520.886,6.579999923706055,-29.68000030517578,-22.96000099182129
1744304520.886,1.6800000667572021,-28.979999542236328,-20.579999923706055
1744304520.886,-2.240000009536743,-29.96000099182129,-17.360000610351562
1744304520.886,-8.890000343322754,-31.219999313354492,-13.789999961853027
1744304520.886,-14.140000343322754,-32.27000045776367,-10.149999618530273
1744304520.886,-17.989999771118164,-32.130001068115234,-7.139999866485596
1744304520.96,-22.81999969482422,-32.40999984741211,-3.569999933242798
1744304520.96,-28.489999771118164,-30.799999237060547,0.14000000059604645
1744304520.96,-37.099998474121094,-23.8700008392334,4.96999979019165
1744304520.96,-44.45000076293945,-10.569999694824219,10.640000343322754
1744304520.96,-53.970001220703125,-0.49000000953674316,15.399999618530273
1744304520.96,-60.54999923706055,-3.3600001335144043,19.040000915527344
1744304520.96,-63.06999969482422,-12.949999809265137,22.610000610351562
1744304520.96,-63.13999938964844,-20.790000915527344,25.200000762939453
1744304521.035,-59.150001525878906,-23.3799991607666,31.43000030517578
1744304521.035,-57.959999084472656,-8.399999618530273,44.52000045776367
1744304521.035,-90.16000366210938,-23.940000534057617,48.369998931884766
1744304521.035,-98.41999816894531,-44.099998474121094,51.17000198364258
1744304521.035,-97.51000213623047,-60.83000183105469,61.18000030517578
1744304521.035,-93.23999786376953,-68.38999938964844,68.94999694824219
1744304521.035,-79.16999816894531,-56.70000076293945,73.91999816894531
1744304521.035,-68.87999725341797,-27.440000534057617,79.0999984741211
1744304521.109,-58.939998626708984,-3.7799999713897705,81.83000183105469
1744304521.109,-57.540000915527344,16.729999542236328,86.7300033569336
1744304521.109,-56,21.350000381469727,87.29000091552734
1744304521.109,-54.38999938964844,16.100000381469727,85.12000274658203
1744304521.109,-57.400001525878906,11.270000457763672,83.51000213623047
1744304521.109,-61.599998474121094,15.190000534057617,80.1500015258789
1744304521.109,-61.25,21.979999542236328,76.2300033569336
1744304521.109,-62.650001525878906,29.75,74.69000244140625
1744304521.184,-64.19000244140625,32.130001068115234,74.97000122070312
1744304521.184,-64.47000122070312,26.880001068115234,75.87999725341797
1744304521.184,-62.58000183105469,19.8799991607666,76.58000183105469
1744304521.184,-58.869998931884766,13.440000534057617,77
1744304521.184,-53.76000213623047,10.710000038146973,76.2300033569336
1744304521.184,-49.279998779296875,13.720000267028809,75.45999908447266
1744304521.184,-45.9900016784668,18.200000762939453,73.08000183105469
1744304521.184,-47.38999938964844,15.119999885559082,69.09000396728516
1744304521.258,-46.619998931884766,17.989999771118164,68.94999694824219
1744304521.258,-41.15999984741211,19.18000030517578,66.70999908447266
1744304521.258,-32.54999923706055,25.1299991607666,65.0999984741211
1744304521.258,-34.86000061035156,25.200000762939453,61.529998779296875
1744304521.258,-38.5,19.25,58.52000045776367
1744304521.258,-35.42000198364258,13.930000305175781,58.380001068115234
1744304521.258,-33.18000030517578,9.520000457763672,54.040000915527344
1744304521.258,-31.56999969482422,7.630000114440918,41.93000030517578
1744304521.332,-27.719999313354492,-1.8899999856948853,38.150001525878906
1744304521.332,-18.200000762939453,-9.730000495910645,35.97999954223633
1744304521.332,-11.760000228881836,-9.59000015258789,33.95000076293945
1744304521.332,-7.909999847412109,-7.420000076293945,31.219999313354492
1744304521.332,-6.090000152587891,-9.170000076293945,28.90999984741211
1744304521.332,-2.799999952316284,-6.860000133514404,26.110000610351562
1744304521.332,-1.2599999904632568,1.4700000286102295,24.56999969482422
1744304521.332,-2.5199999809265137,10.569999694824219,21.350000381469727
1744304521.407,-5.110000133514404,18.200000762939453,16.8700008392334
1744304521.407,-6.579999923706055,24.989999771118164,12.039999961853027
1744304521.407,-3.2899999618530273,33.599998474121094,6.159999847412109
1744304521.407,0.49000000953674316,36.470001220703125,1.6800000667572021
1744304521.407,5.110000133514404,28.280000686645508,-3.2899999618530273
1744304521.407,6.300000190734863,10.220000267028809,-7.139999866485596
1744304521.407,6.860000133514404,-5.389999866485596,-9.449999809265137
1744304521.407,10.710000038146973,-3.2899999618530273,-10.989999771118164
1744304521.481,15.609999656677246,11.760000228881836,-11.199999809265137
1744304521.481,23.729999542236328,36.2599983215332,-11.40999984741211
1744304521.481,29.610000610351562,59.9900016784668,-14.90999984741211
1744304521.481,28.489999771118164,81.34000396728516,-17.639999389648438
1744304521.481,28.559999465942383,97.09000396728516,-17.920000076293945
1744304521.481,30.450000762939453,113.05000305175781,-12.739999771118164
1744304521.481,25.40999984741211,144.69000244140625,-2.940000057220459
1744304521.481,18.059999465942383,167.50999450683594,5.949999809265137
1744304521.556,10.289999961853027,149.8699951171875,14.350000381469727
1744304521.556,3.7799999713897705,107.37999725341797,22.399999618530273
1744304521.556,6.579999923706055,72.37999725341797,29.469999313354492
1744304521.556,18.969999313354492,48.5099983215332,34.369998931884766
1744304521.556,31.5,27.579999923706055,41.650001525878906
1744304521.556,41.15999984741211,4.340000152587891,44.65999984741211
1744304521.556,50.61000061035156,-14.420000076293945,30.170000076293945
1744304521.556,69.58000183105469,1.8200000524520874,-0.42000001668930054
1744304521.63,35.97999954223633,29.96000099182129,-11.619999885559082
1744304521.63,-11.130000114440918,65.66000366210938,9.239999771118164
1744304521.63,44.099998474121094,-27.579999923706055,32.40999984741211
1744304521.63,43.189998626708984,-91.91000366210938,54.11000061035156
1744304521.63,59.92000198364258,-74.76000213623047,51.869998931884766
1744304521.63,65.37999725341797,2.0299999713897705,31.010000228881836
1744304521.63,32.27000045776367,67.19999694824219,4.409999847412109
1744304521.63,29.469999313354492,4.900000095367432,-22.68000030517578
1744304521.704,41.29999923706055,-57.959999084472656,-31.290000915527344
1744304521.704,48.22999954223633,-66.29000091552734,-27.3700008392334
1744304521.704,44.029998779296875,-37.79999923706055,-29.469999313354492
1744304521.704,41.02000045776367,5.320000171661377,-38.849998474121094
1744304521.704,42.630001068115234,35,-50.2599983215332
1744304521.704,45.36000061035156,34.02000045776367,-53.689998626708984
1744304521.704,49.279998779296875,11.899999618530273,-48.29999923706055
1744304521.704,46.060001373291016,0.21000000834465027,-45.08000183105469
1744304521.779,38.0099983215332,-3.7799999713897705,-45.0099983215332
1744304521.779,31.56999969482422,-8.470000267028809,-44.72999954223633
1744304521.779,30.940000534057617,-19.389999389648438,-40.810001373291016
1744304521.779,31.079999923706055,-38.290000915527344,-34.86000061035156
1744304521.779,29.190000534057617,-38.220001220703125,-31.079999923706055
1744304521.779,28.280000686645508,-25.40999984741211,-32.060001373291016
1744304521.779,29.260000228881836,-18.549999237060547,-34.15999984741211
1744304521.779,33.38999938964844,-20.649999618530273,-32.689998626708984
1744304521.853,32.47999954223633,-20.440000534057617,-29.399999618530273
1744304521.853,26.31999969482422,-16.520000457763672,-28.06999969482422
1744304521.853,21.350000381469727,-16.799999237060547,-28.420000076293945
1744304521.853,21.489999771118164,-12.25,-29.469999313354492
1744304521.853,24.010000228881836,-11.270000457763672,-29.329999923706055
1744304521.853,25.549999237060547,-11.480000495910645,-26.31999969482422
1744304521.853,25.899999618530273,-8.609999656677246,-23.799999237060547
1744304521.853,26.880001068115234,-1.75,-22.399999618530273
1744304521.927,27.579999923706055,5.880000114440918,-21.21000099182129
1744304521.927,25.270000457763672,11.0600004196167,-19.670000076293945
1744304521.927,23.170000076293945,15.329999923706055,-17.989999771118164
1744304521.927,21.350000381469727,15.050000190734863,-17.010000228881836
1744304521.927,19.809999465942383,14.350000381469727,-17.71000099182129
1744304521.927,18.270000457763672,12.739999771118164,-18.549999237060547
1744304521.927,18.270000457763672,7.139999866485596,-17.219999313354492
1744304521.927,18.549999237060547,-0.9800000190734863,-15.819999694824219
1744304522.002,18.479999542236328,-10.710000038146973,-15.960000038146973
1744304522.002,17.850000381469727,-17.920000076293945,-16.030000686645508
1744304522.002,16.309999465942383,-20.440000534057617,-14.980000495910645
1744304522.002,16.3799991607666,-19.600000381469727,-14.350000381469727
1744304522.002,16.520000457763672,-17.56999969482422,-14.489999771118164
1744304522.002,17.079999923706055,-17.290000915527344,-14.980000495910645
1744304522.002,16.450000762939453,-15.050000190734863,-16.100000381469727
1744304522.002,15.960000038146973,-13.440000534057617,-17.219999313354492
1744304522.077,15.260000228881836,-14.210000038146973,-18.1299991607666
1744304522.077,14.140000343322754,-14.279999732971191,-19.18000030517578
1744304522.077,12.529999732971191,-14.420000076293945,-20.579999923706055
1744304522.077,10.779999732971191,-11.270000457763672,-22.610000610351562
1744304522.077,8.75,-7.420000076293945,-21.700000762939453
1744304522.077,8.890000343322754,-1.399999976158142,-18.690000534057617
1744304522.077,9.380000114440918,-0.9100000262260437,-16.59000015258789
1744304522.077,9.9399995803833,-6.019999980926514,-14.350000381469727
1744304522.151,8.680000305175781,-7.28000020980835,-12.319999694824219
1744304522.151,6.230000019073486,-13.579999923706055,-10.289999961853027
1744304522.151,5.880000114440918,-22.81999969482422,-8.890000343322754
1744304522.151,4.829999923706055,-27.440000534057617,-8.680000305175781
1744304522.151,3.569999933242798,-27.09000015258789,-7.699999809265137
1744304522.151,4.059999942779541,-24.219999313354492,-6.929999828338623
1744304522.151,3.7799999713897705,-20.649999618530273,-6.929999828338623
1744304522.151,4.480000019073486,-18.969999313354492,-7.28000020980835
1744304522.225,4.829999923706055,-22.329999923706055,-7.840000152587891
1744304522.225,3.5,-29.399999618530273,-8.329999923706055
1744304522.225,2.0299999713897705,-34.58000183105469,-8.1899995803833
1744304522.225,2.240000009536743,-34.29999923706055,-8.399999618530273
1744304522.225,2.0999999046325684,-27.020000457763672,-8.119999885559082
1744304522.225,1.0499999523162842,-20.579999923706055,-7.420000076293945
1744304522.225,1.2599999904632568,-18.34000015258789,-6.720000267028809
1744304522.225,0.9100000262260437,-21.84000015258789,-5.670000076293945
1744304522.299,0.07000000029802322,-27.020000457763672,-5.039999961853027
1744304522.299,-1.190000057220459,-30.239999771118164,-4.550000190734863
1744304522.299,-1.6100000143051147,-30.520000457763672,-4.340000152587891
1744304522.299,-1.399999976158142,-26.18000030517578,-4.619999885559082
1744304522.299,-0.5600000023841858,-22.260000228881836,-5.039999961853027
1744304522.299,0.2800000011920929,-20.299999237060547,-5.949999809265137
1744304522.299,0.3499999940395355,-19.46000099182129,-7.070000171661377
1744304522.299,0.9800000190734863,-16.59000015258789,-8.819999694824219
1744304522.374,1.6800000667572021,-13.230000495910645,-10.430000305175781
1744304522.374,2.380000114440918,-9.239999771118164,-12.319999694824219
1744304522.374,2.5199999809265137,-5.460000038146973,-13.15999984741211
1744304522.374,3.430000066757202,-2.1700000762939453,-13.789999961853027
1744304522.374,4.619999885559082,0.21000000834465027,-14.210000038146973
1744304522.374,4.900000095367432,2.5199999809265137,-14.420000076293945
1744304522.374,4.269999980926514,2.940000057220459,-14
1744304522.374,3.990000009536743,0.7699999809265137,-13.09000015258789
1744304522.449,3.430000066757202,-1.3300000429153442,-12.319999694824219
1744304522.449,2.7300000190734863,-1.4700000286102295,-11.270000457763672
1744304522.449,2.799999952316284,-2.0999999046325684,-10.079999923706055
1744304522.449,2.870000123977661,-1.8899999856948853,-8.539999961853027
1744304522.449,2.309999942779541,-0.3499999940395355,-7.420000076293945
1744304522.449,2.380000114440918,-0.49000000953674316,-6.300000190734863
1744304522.449,2.380000114440918,-1.4700000286102295,-5.460000038146973
1744304522.449,1.8200000524520874,-2.940000057220459,-4.829999923706055
1744304522.523,0.8400000333786011,-4.760000228881836,-4.480000019073486
1744304522.523,0.21000000834465027,-7.139999866485596,-4.130000114440918
1744304522.523,-1.3300000429153442,-8.819999694824219,-3.640000104904175
1744304522.523,-2.240000009536743,-8.75,-3.5
1744304522.523,-2.0299999713897705,-8.260000228881836,-3.2200000286102295
1744304522.523,-1.6100000143051147,-6.300000190734863,-2.940000057220459
1744304522.523,-0.5600000023841858,-3.3600001335144043,-2.870000123977661
1744304522.523,0.14000000059604645,-1.1200000047683716,-3.3600001335144043
1744304522.597,0.6299999952316284,-0.42000001668930054,-4.269999980926514
1744304522.597,0.7699999809265137,-0.07000000029802322,-5.25
1744304522.597,0.8400000333786011,0.699999988079071,-6.230000019073486
1744304522.597,0.9100000262260437,1.75,-7.349999904632568
1744304522.597,1.2599999904632568,3.3600001335144043,-8.119999885559082
1744304522.597,1.6100000143051147,4.760000228881836,-8.609999656677246
1744304522.597,2.0999999046325684,5.25,-8.680000305175781
1744304522.597,2.309999942779541,5.670000076293945,-8.609999656677246
1744304522.671,2.7300000190734863,6.929999828338623,-8.329999923706055
1744304522.671,2.870000123977661,7.840000152587891,-7.490000247955322
1744304522.671,3.009999990463257,7.28000020980835,-6.720000267028809
1744304522.671,2.5199999809265137,5.389999866485596,-5.809999942779541
1744304522.671,1.8899999856948853,3.1500000953674316,-4.760000228881836
1744304522.671,1.6800000667572021,1.5399999618530273,-3.7100000381469727
1744304522.671,1.75,0.5600000023841858,-2.6600000858306885
1744304522.671,1.6100000143051147,-0.5600000023841858,-2.0299999713897705
1744304522.746,1.75,-1.4700000286102295,-1.6800000667572021
1744304522.746,1.75,-2.5199999809265137,-1.399999976158142
1744304522.746,1.8899999856948853,-2.6600000858306885,-1.5399999618530273
1744304522.746,1.8899999856948853,-2.870000123977661,-1.8200000524520874
1744304522.746,1.8200000524520874,-2.5899999141693115,-1.9600000381469727
1744304522.746,1.6800000667572021,-1.8899999856948853,-2.450000047683716
1744304522.746,1.75,-1.3300000429153442,-2.450000047683716
1744304522.746,2.380000114440918,-0.2800000011920929,-2.6600000858306885
1744304522.821,2.5199999809265137,0.14000000059604645,-2.450000047683716
1744304522.821,2.1700000762939453,-0.9800000190734863,-2.380000114440918
1744304522.821,1.4700000286102295,-1.1200000047683716,-2.309999942779541
1744304522.821,1.3300000429153442,-0.9100000262260437,-2.309999942779541
1744304522.821,1.6100000143051147,-0.9800000190734863,-2.240000009536743
1744304522.821,1.75,-0.7699999809265137,-2.380000114440918
1744304522.821,1.6100000143051147,-0.9800000190734863,-2.309999942779541
1744304522.821,1.5399999618530273,-1.4700000286102295,-2.380000114440918
1744304522.895,1.1200000047683716,-1.8200000524520874,-2.450000047683716
1744304522.895,1.1200000047683716,-1.8200000524520874,-2.240000009536743
1744304522.895,1.3300000429153442,-2.309999942779541,-1.75
1744304522.895,1.8899999856948853,-3.009999990463257,-1.190000057220459
1744304522.895,2.240000009536743,-4.269999980926514,-0.49000000953674316
1744304522.895,1.8200000524520874,-5.460000038146973,-0.21000000834465027
1744304522.895,1.190000057220459,-7.28000020980835,0.3499999940395355
1744304522.895,0.7699999809265137,-8.75,0.699999988079071
1744304522.969,0.7699999809265137,-9.100000381469727,0.9100000262260437
1744304522.969,0.8400000333786011,-8.819999694824219,1.2599999904632568
1744304522.969,0.9100000262260437,-8.470000267028809,1.4700000286102295
1744304522.969,1.190000057220459,-9.239999771118164,1.3300000429153442
1744304522.969,1.399999976158142,-9.59000015258789,0.7699999809265137
1744304522.969,1.4700000286102295,-8.960000038146973,0.21000000834465027
1744304522.969,1.8899999856948853,-7.699999809265137,-0.14000000059604645
1744304522.969,2.380000114440918,-6.720000267028809,-0.42000001668930054
1744304523.043,2.5899999141693115,-5.670000076293945,-0.49000000953674316
1744304523.043,2.1700000762939453,-4.760000228881836,-0.5600000023841858
1744304523.043,2.0299999713897705,-3.990000009536743,-0.5600000023841858
1744304523.043,1.8899999856948853,-3.3600001335144043,-0.5600000023841858
1744304523.043,1.9600000381469727,-3.0799999237060547,-0.42000001668930054
1744304523.043,2.0999999046325684,-3.2899999618530273,-0.21000000834465027
1744304523.043,1.9600000381469727,-3.0799999237060547,-0.3499999940395355
1744304523.043,2.0999999046325684,-2.450000047683716,-0.21000000834465027
1744304523.118,2.0299999713897705,-1.399999976158142,-0.14000000059604645
1744304523.118,2.1700000762939453,-0.14000000059604645,-0.14000000059604645
1744304523.118,2.1700000762939453,0.5600000023841858,-0.14000000059604645
1744304523.118,2.1700000762939453,0.9100000262260437,-0.2800000011920929
1744304523.118,2.0299999713897705,0.8400000333786011,-0.3499999940395355
1744304523.118,1.9600000381469727,1.3300000429153442,-0.42000001668930054
1744304523.118,1.9600000381469727,2.450000047683716,-0.3499999940395355
1744304523.118,2.240000009536743,3.1500000953674316,-0.2800000011920929
1744304523.193,2.450000047683716,3.990000009536743,-0.14000000059604645
1744304523.193,2.5899999141693115,4.619999885559082,0
1744304523.193,2.6600000858306885,4.829999923706055,0.2800000011920929
1744304523.193,2.799999952316284,4.619999885559082,0.42000001668930054
1744304523.193,2.5899999141693115,4.269999980926514,0.2800000011920929
1744304523.193,2.6600000858306885,4.130000114440918,0.14000000059604645
1744304523.193,2.380000114440918,3.8499999046325684,-0.21000000834465027
1744304523.193,2.309999942779541,3.2200000286102295,-0.5600000023841858
1744304523.267,2.380000114440918,2.940000057220459,-0.699999988079071
1744304523.267,2.5899999141693115,3.430000066757202,-0.7699999809265137
1744304523.267,2.799999952316284,3.9200000762939453,-0.699999988079071
1744304523.267,3.0799999237060547,4.059999942779541,-0.6299999952316284
1744304523.267,3.0799999237060547,4.130000114440918,-0.5600000023841858
1744304523.267,3.009999990463257,3.990000009536743,-0.5600000023841858
1744304523.267,3.2899999618530273,4.760000228881836,-0.8400000333786011
1744304523.267,3.2200000286102295,4.690000057220459,-0.699999988079071
1744304523.341,2.940000057220459,3.569999933242798,-0.49000000953674316
1744304523.341,2.380000114440918,3.3600001335144043,-0.3499999940395355
1744304523.341,2.0299999713897705,3.2200000286102295,0
1744304523.341,2.450000047683716,2.870000123977661,0
1744304523.341,2.380000114440918,2.380000114440918,0.07000000029802322
1744304523.341,2.380000114440918,2.0999999046325684,0.2800000011920929
1744304523.341,2.309999942779541,2.0999999046325684,0.42000001668930054
1744304523.341,1.75,2.0299999713897705,0.6299999952316284
1744304523.415,0.9800000190734863,2.1700000762939453,0.6299999952316284
1744304523.415,0.6299999952316284,1.8200000524520874,0.8400000333786011
1744304523.415,0.42000001668930054,1.6100000143051147,0.9100000262260437
1744304523.415,0.5600000023841858,1.6100000143051147,1.0499999523162842
1744304523.415,0.699999988079071,1.8200000524520874,1.0499999523162842
1744304523.415,0.8400000333786011,2.799999952316284,0.49000000953674316
1744304523.415,1.1200000047683716,3.8499999046325684,0.14000000059604645
1744304523.415,1.6100000143051147,5.460000038146973,-0.3499999940395355
1744304523.49,1.8200000524520874,6.860000133514404,-0.8400000333786011
1744304523.49,1.6800000667572021,7.139999866485596,-1.4700000286102295
1744304523.49,1.75,7.699999809265137,-2.1700000762939453
1744304523.49,2.1700000762939453,8.890000343322754,-2.870000123977661
1744304523.49,2.450000047683716,9.520000457763672,-3.0799999237060547
1744304523.49,2.0999999046325684,9.869999885559082,-3.2200000286102295
1744304523.49,1.8899999856948853,9.59000015258789,-3.2200000286102295
1744304523.49,1.8200000524520874,9.239999771118164,-2.6600000858306885
1744304523.565,1.9600000381469727,8.680000305175781,-1.9600000381469727
1744304523.565,2.240000009536743,7.559999942779541,-1.1200000047683716
1744304523.565,2.240000009536743,5.599999904632568,-0.49000000953674316
1744304523.565,2.240000009536743,3.3600001335144043,0.21000000834465027
1744304523.565,2.0299999713897705,1.2599999904632568,0.7699999809265137
1744304523.565,2.1700000762939453,-0.7699999809265137,1.1200000047683716
1744304523.565,1.6800000667572021,-2.5199999809265137,1.3300000429153442
1744304523.565,1.4700000286102295,-4.340000152587891,1.6100000143051147
1744304523.639,1.4700000286102295,-6.440000057220459,2.0299999713897705
1744304523.639,1.190000057220459,-8.1899995803833,1.9600000381469727
1744304523.639,1.190000057220459,-9.239999771118164,1.6800000667572021
1744304523.639,1.2599999904632568,-9.170000076293945,1.1200000047683716
1744304523.639,1.5399999618530273,-8.890000343322754,0.6299999952316284
1744304523.639,1.8899999856948853,-8.1899995803833,-0.14000000059604645
1744304523.639,2.1700000762939453,-6.510000228881836,-1.4700000286102295
1744304523.639,2.450000047683716,-5.039999961853027,-2.450000047683716
1744304523.713,2.380000114440918,-4.480000019073486,-3.1500000953674316
1744304523.713,2.450000047683716,-3.569999933242798,-3.8499999046325684
1744304523.713,2.870000123977661,-3.1500000953674316,-4.059999942779541
1744304523.713,3.430000066757202,-3.0799999237060547,-3.9200000762939453
1744304523.713,2.940000057220459,-3.0799999237060547,-3.7799999713897705
1744304523.713,2.450000047683716,-3.430000066757202,-3.5
1744304523.713,2.240000009536743,-3.640000104904175,-3.0799999237060547
1744304523.713,1.75,-3.990000009536743,-2.450000047683716
1744304523.787,1.2599999904632568,-4.900000095367432,-1.4700000286102295
1744304523.787,1.2599999904632568,-6.510000228881836,-0.8400000333786011
1744304523.787,1.3300000429153442,-7.210000038146973,-0.21000000834465027
1744304523.787,1.2599999904632568,-7.630000114440918,0.3499999940395355
1744304523.787,0.9100000262260437,-8.819999694824219,0.9800000190734863
1744304523.787,0.7699999809265137,-10.220000267028809,1.399999976158142
1744304523.787,0.6299999952316284,-11.199999809265137,1.8899999856948853
1744304523.787,0.42000001668930054,-12.880000114440918,2.1700000762939453
1744304523.862,0.5600000023841858,-12.600000381469727,1.6800000667572021
1744304523.862,0.49000000953674316,-10.079999923706055,1.1200000047683716
1744304523.862,1.0499999523162842,-7.840000152587891,0.7699999809265137
1744304523.862,1.6100000143051147,-6.019999980926514,0.07000000029802322
1744304523.862,1.75,-4.760000228881836,-0.6299999952316284
1744304523.862,1.399999976158142,-4.340000152587891,-1.1200000047683716
1744304523.862,1.3300000429153442,-4.130000114440918,-1.4700000286102295
1744304523.862,1.6800000667572021,-4.199999809265137,-1.399999976158142
1744304523.936,2.0299999713897705,-4.269999980926514,-1.190000057220459
1744304523.936,2.309999942779541,-4.340000152587891,-0.6299999952316284
1744304523.936,2.309999942779541,-4.619999885559082,0.21000000834465027
1744304523.936,1.9600000381469727,-6.300000190734863,1.0499999523162842
1744304523.936,1.5399999618530273,-8.539999961853027,1.6800000667572021
1744304523.936,1.4700000286102295,-10.079999923706055,1.8200000524520874
1744304523.936,1.190000057220459,-10.430000305175781,2.0999999046325684
1744304523.936,1.399999976158142,-10.430000305175781,2.450000047683716
1744304524.011,2.0299999713897705,-9.100000381469727,2.5899999141693115
1744304524.011,2.0299999713897705,-9.100000381469727,2.799999952316284
1744304524.011,1.399999976158142,-10.149999618530273,2.380000114440918
1744304524.011,0.9800000190734863,-11.0600004196167,2.1700000762939453
1744304524.011,0.9100000262260437,-9.730000495910645,2.0299999713897705
1744304524.011,1.6800000667572021,-7.909999847412109,1.399999976158142
1744304524.011,2.7300000190734863,-6.789999961853027,1.1200000047683716
1744304524.011,3.009999990463257,-5.179999828338623,0.2800000011920929
1744304524.085,3.3600001335144043,-4.059999942779541,0
1744304524.085,3.7799999713897705,-3.569999933242798,-0.21000000834465027
1744304524.085,4.340000152587891,-2.799999952316284,-0.49000000953674316
1744304524.085,4.269999980926514,-1.2599999904632568,-0.5600000023841858
1744304524.085,4.059999942779541,0.07000000029802322,-0.49000000953674316
1744304524.085,3.990000009536743,0,-0.7699999809265137
1744304524.085,3.430000066757202,-0.2800000011920929,-0.7699999809265137
1744304524.085,3.2899999618530273,0.699999988079071,-0.7699999809265137
1744304524.16,3.2899999618530273,1.6800000667572021,-0.9800000190734863
1744304524.16,3.5,1.6800000667572021,-1.2599999904632568
1744304524.16,3.1500000953674316,1.190000057220459,-1.399999976158142
1744304524.16,3.0799999237060547,0.8400000333786011,-1.9600000381469727
1744304524.16,3.0799999237060547,1.6800000667572021,-2.5899999141693115
1744304524.16,3.009999990463257,2.6600000858306885,-2.870000123977661
1744304524.16,2.799999952316284,3.8499999046325684,-3.0799999237060547
1744304524.16,2.870000123977661,4.480000019073486,-3.430000066757202
1744304524.234,2.5199999809265137,3.9200000762939453,-3.430000066757202
1744304524.234,2.450000047683716,4.130000114440918,-3.430000066757202
1744304524.234,2.309999942779541,5.039999961853027,-3.2899999618530273
1744304524.234,2.5199999809265137,5.740000247955322,-3.0799999237060547
1744304524.234,2.6600000858306885,6.230000019073486,-2.5899999141693115
1744304524.234,2.380000114440918,5.25,-1.9600000381469727
1744304524.234,2.1700000762939453,4.059999942779541,-1.5399999618530273
1744304524.234,1.8899999856948853,2.870000123977661,-1.0499999523162842
1744304524.308,1.8899999856948853,1.0499999523162842,-0.8400000333786011
1744304524.308,2.0999999046325684,-0.49000000953674316,-0.6299999952316284
1744304524.308,1.75,-2.309999942779541,-0.42000001668930054
1744304524.308,1.2599999904632568,-4.059999942779541,-0.3499999940395355
1744304524.308,1.190000057220459,-4.480000019073486,-0.42000001668930054
1744304524.308,1.8200000524520874,-4.199999809265137,-0.3499999940395355
1744304524.308,1.9600000381469727,-3.8499999046325684,-0.42000001668930054
1744304524.308,1.8200000524520874,-3.569999933242798,-0.6299999952316284
1744304524.383,1.190000057220459,-2.0999999046325684,-1.0499999523162842
1744304524.383,1.5399999618530273,-1.190000057220459,-1.5399999618530273
1744304524.383,2.1700000762939453,-0.49000000953674316,-2.0299999713897705
1744304524.383,2.7300000190734863,0.8400000333786011,-2.450000047683716
1744304524.383,3.1500000953674316,1.9600000381469727,-2.6600000858306885
1744304524.383,3.2899999618530273,1.8899999856948853,-2.940000057220459
1744304524.383,3.1500000953674316,1.4700000286102295,-3.1500000953674316
1744304524.383,3.3600001335144043,1.6800000667572021,-3.3600001335144043
1744304524.457,3.2899999618530273,2.309999942779541,-3.3600001335144043
1744304524.457,3.5,2.6600000858306885,-3.2200000286102295
1744304524.457,3.640000104904175,2.1700000762939453,-2.799999952316284
1744304524.457,3.430000066757202,1.3300000429153442,-2.450000047683716
1744304524.457,3.0799999237060547,0.3499999940395355,-2.1700000762939453
1744304524.457,2.7300000190734863,-1.1200000047683716,-1.8200000524520874
1744304524.457,2.6600000858306885,-1.399999976158142,-1.2599999904632568
1744304524.457,2.5199999809265137,-1.6100000143051147,-0.8400000333786011
1744304524.532,2.240000009536743,-1.3300000429153442,-0.8400000333786011
1744304524.532,1.8200000524520874,-1.1200000047683716,-0.3499999940395355
1744304524.532,1.3300000429153442,-0.2800000011920929,0.14000000059604645
1744304524.532,1.190000057220459,0.8400000333786011,0.3499999940395355
1744304524.532,0.9100000262260437,1.3300000429153442,0.49000000953674316
1744304524.532,0.699999988079071,1.1200000047683716,0.6299999952316284
1744304524.532,0.6299999952316284,1.0499999523162842,0.699999988079071
1744304524.532,1.0499999523162842,1.6100000143051147,0.5600000023841858
1744304524.606,1.190000057220459,2.380000114440918,0.3499999940395355
1744304524.606,1.399999976158142,2.5199999809265137,-0.07000000029802322
1744304524.606,1.3300000429153442,1.8899999856948853,-0.3499999940395355
1744304524.606,1.6800000667572021,1.5399999618530273,-0.8400000333786011
1744304524.606,1.8200000524520874,1.2599999904632568,-1.190000057220459
1744304524.606,1.6100000143051147,0.2800000011920929,-1.3300000429153442
1744304524.606,1.190000057220459,-0.699999988079071,-1.6100000143051147
1744304524.606,0.9100000262260437,-1.9600000381469727,-1.5399999618530273
1744304524.68,0.8400000333786011,-2.240000009536743,-1.4700000286102295
1744304524.68,1.190000057220459,-2.380000114440918,-1.0499999523162842
1744304524.68,1.5399999618530273,-1.5399999618530273,-0.6299999952316284
1744304524.68,1.8899999856948853,-0.14000000059604645,-0.49000000953674316
1744304524.68,2.0299999713897705,-0.14000000059604645,0.21000000834465027
1744304524.68,2.380000114440918,0.5600000023841858,-0.42000001668930054
1744304524.68,1.6800000667572021,-0.7699999809265137,0.2800000011920929
1744304524.68,0.6299999952316284,-3.8499999046325684,0.5600000023841858
1744304524.755,0.9100000262260437,-5.740000247955322,0.6299999952316284
1744304524.755,1.2599999904632568,-4.550000190734863,1.0499999523162842
1744304524.755,1.2599999904632568,-3.2200000286102295,1.1200000047683716
1744304524.755,1.4700000286102295,-3.9200000762939453,1.2599999904632568
1744304524.755,1.190000057220459,-4.130000114440918,1.190000057220459
1744304524.755,1.0499999523162842,-4.340000152587891,1.3300000429153442
1744304524.755,1.0499999523162842,-5.179999828338623,1.3300000429153442
1744304524.755,1.2599999904632568,-5.110000133514404,0.6299999952316284
1744304524.829,0.7699999809265137,-5.599999904632568,0.9800000190734863
1744304524.829,0.699999988079071,-6.789999961853027,0.7699999809265137
1744304524.829,0.7699999809265137,-5.53000020980835,0.42000001668930054
1744304524.829,1.0499999523162842,-3.430000066757202,0.699999988079071
1744304524.829,1.4700000286102295,-1.75,0.2800000011920929
1744304524.829,1.6100000143051147,-2.7300000190734863,0.14000000059604645
1744304524.829,0.6299999952316284,-3.569999933242798,0.14000000059604645
1744304524.829,0.21000000834465027,-4.760000228881836,0.14000000059604645
1744304524.904,1.1200000047683716,-5.110000133514404,-0.07000000029802322
1744304524.904,1.5399999618530273,-4.690000057220459,-0.21000000834465027
1744304524.904,1.0499999523162842,-4.480000019073486,-0.3499999940395355
1744304524.904,0.8400000333786011,-5.039999961853027,-0.14000000059604645
1744304524.904,1.0499999523162842,-4.269999980926514,0
1744304524.904,1.1200000047683716,-4.130000114440918,0.5600000023841858
1744304524.904,0.8400000333786011,-4.900000095367432,0.9800000190734863
1744304524.904,0.5600000023841858,-6.300000190734863,1.3300000429153442
1744304524.978,0.2800000011920929,-8.119999885559082,1.8899999856948853
1744304524.978,0.3499999940395355,-9.239999771118164,2.799999952316284
1744304524.978,0.6299999952316284,-10.010000228881836,3.7100000381469727
1744304524.978,0.49000000953674316,-10.5,4.480000019073486
1744304524.978,-0.42000001668930054,-12.109999656677246,5.039999961853027
1744304524.978,-1.190000057220459,-13.720000267028809,5.389999866485596
1744304524.978,-1.6100000143051147,-13.789999961853027,5.460000038146973
1744304524.978,-1.190000057220459,-12.460000038146973,5.320000171661377
1744304525.052,-0.9100000262260437,-11.199999809265137,4.96999979019165
1744304525.052,-0.9100000262260437,-9.9399995803833,4.269999980926514
1744304525.052,-0.5600000023841858,-7.840000152587891,3.1500000953674316
1744304525.052,-0.42000001668930054,-5.460000038146973,2.380000114440918
1744304525.052,-0.21000000834465027,-3.1500000953674316,1.8200000524520874
1744304525.052,0.07000000029802322,-0.49000000953674316,1.4700000286102295
1744304525.052,0.21000000834465027,2.0299999713897705,1.3300000429153442
1744304525.052,0.42000001668930054,3.009999990463257,1.2599999904632568
1744304525.126,0.3499999940395355,2.309999942779541,1.190000057220459
1744304525.126,-0.07000000029802322,1.3300000429153442,1.190000057220459
1744304525.126,-0.2800000011920929,0.14000000059604645,1.2599999904632568
1744304525.126,-0.5600000023841858,-1.0499999523162842,1.3300000429153442
1744304525.126,-0.42000001668930054,-1.399999976158142,1.399999976158142
1744304525.126,-0.2800000011920929,-1.2599999904632568,1.4700000286102295
1744304525.126,-0.49000000953674316,-0.9100000262260437,1.5399999618530273
1744304525.126,-0.42000001668930054,-0.699999988079071,1.6100000143051147
1744304525.201,-0.9100000262260437,-1.1200000047683716,1.8899999856948853
1744304525.201,-1.3300000429153442,-1.5399999618530273,2.240000009536743
1744304525.201,-1.6100000143051147,-1.3300000429153442,2.380000114440918
1744304525.201,-1.399999976158142,-0.14000000059604645,2.1700000762939453
1744304525.201,-1.6800000667572021,-0.3499999940395355,2.240000009536743
1744304525.201,-1.75,-0.9100000262260437,2.1700000762939453
1744304525.201,-1.6800000667572021,0.07000000029802322,1.9600000381469727
1744304525.201,-1.5399999618530273,0.49000000953674316,1.5399999618530273
1744304525.276,-1.0499999523162842,0.3499999940395355,1.6100000143051147
1744304525.276,-0.9100000262260437,-0.14000000059604645,1.190000057220459
1744304525.276,-1.190000057220459,-1.190000057220459,1.1200000047683716
1744304525.276,-1.190000057220459,-0.699999988079071,1.2599999904632568
1744304525.276,-0.699999988079071,0.42000001668930054,1.4700000286102295
1744304525.276,-0.49000000953674316,-0.699999988079071,2.0999999046325684
1744304525.276,-0.3499999940395355,-2.6600000858306885,2.450000047683716
1744304525.276,-0.6299999952316284,-5.53000020980835,3.009999990463257
1744304525.35,-0.8400000333786011,-7.139999866485596,3.569999933242798
1744304525.35,-0.699999988079071,-8.050000190734863,4.340000152587891
1744304525.35,-0.8400000333786011,-10.010000228881836,4.900000095367432
1744304525.35,-0.9100000262260437,-11.34000015258789,5.320000171661377
1744304525.35,-0.7699999809265137,-13.15999984741211,5.389999866485596
1744304525.35,-1.1200000047683716,-13.720000267028809,4.96999979019165
1744304525.35,-1.6100000143051147,-13.020000457763672,4.619999885559082
1744304525.35,-0.8400000333786011,-12.529999732971191,4.199999809265137
1744304525.424,-0.07000000029802322,-11.970000267028809,3.7799999713897705
1744304525.424,-0.14000000059604645,-10.779999732971191,3.3600001335144043
1744304525.424,-0.5600000023841858,-10.779999732971191,2.799999952316284
1744304525.424,-0.7699999809265137,-10.569999694824219,2.0999999046325684
1744304525.424,-0.699999988079071,-8.75,1.6800000667572021
1744304525.424,0.07000000029802322,-5.740000247955322,1.190000057220459
1744304525.424,0.6299999952316284,-3.3600001335144043,1.2599999904632568
1744304525.424,0.699999988079071,-2.450000047683716,1.1200000047683716
1744304525.498,0.699999988079071,-2.940000057220459,0.9800000190734863
1744304525.498,0.6299999952316284,-2.7300000190734863,0.49000000953674316
1744304525.498,0.42000001668930054,-3.0799999237060547,0.21000000834465027
1744304525.498,0.699999988079071,-3.640000104904175,0.3499999940395355
1744304525.498,0.9100000262260437,-4.550000190734863,0.49000000953674316
1744304525.498,0.9100000262260437,-4.340000152587891,0.3499999940395355
1744304525.498,0.9800000190734863,-3.9200000762939453,0.2800000011920929
1744304525.498,1.190000057220459,-4.619999885559082,-0.14000000059604645
1744304525.573,1.0499999523162842,-4.829999923706055,-0.7699999809265137
1744304525.573,1.1200000047683716,-4.269999980926514,-1.2599999904632568
1744304525.573,1.399999976158142,-3.5,-1.6800000667572021
1744304525.573,1.6800000667572021,-2.0999999046325684,-2.240000009536743
1744304525.573,2.0999999046325684,-0.6299999952316284,-2.870000123977661
1744304525.573,2.309999942779541,0.3499999940395355,-3.2200000286102295
1744304525.573,2.380000114440918,0.6299999952316284,-3.640000104904175
1744304525.573,2.1700000762939453,0.5600000023841858,-3.9200000762939453
1744304525.648,2.0299999713897705,0.8400000333786011,-3.990000009536743
1744304525.648,2.0299999713897705,0.6299999952316284,-4.059999942779541
1744304525.648,1.8899999856948853,0.7699999809265137,-4.059999942779541
1744304525.648,2.240000009536743,1.6800000667572021,-4.059999942779541
1744304525.648,1.9600000381469727,2.940000057220459,-4.409999847412109
1744304525.648,1.6100000143051147,1.399999976158142,-3.990000009536743
1744304525.648,1.8200000524520874,0.42000001668930054,-4.269999980926514
1744304525.648,2.450000047683716,1.3300000429153442,-4.409999847412109
1744304525.722,2.309999942779541,2.5199999809265137,-4.760000228881836
1744304525.722,2.450000047683716,2.870000123977661,-5.460000038146973
1744304525.722,2.5899999141693115,3.1500000953674316,-6.019999980926514
1744304525.722,2.5899999141693115,4.409999847412109,-6.159999847412109
1744304525.722,2.940000057220459,6.159999847412109,-6.159999847412109
1744304525.722,3.3600001335144043,7.909999847412109,-6.650000095367432
1744304525.722,3.0799999237060547,8.680000305175781,-6.789999961853027
1744304525.722,2.450000047683716,6.369999885559082,-6.369999885559082
1744304525.796,2.7300000190734863,5.740000247955322,-6.720000267028809
1744304525.796,3.0799999237060547,6.650000095367432,-6.300000190734863
1744304525.796,2.870000123977661,6.019999980926514,-5.670000076293945
1744304525.796,2.309999942779541,2.7300000190734863,-4.96999979019165
1744304525.796,1.8899999856948853,0,-4.619999885559082
1744304525.796,2.380000114440918,-0.49000000953674316,-4.059999942779541
1744304525.796,2.450000047683716,-0.8400000333786011,-3.2899999618530273
1744304525.796,2.1700000762939453,-1.75,-3.1500000953674316
1744304525.87,1.4700000286102295,-2.0299999713897705,-3.009999990463257
1744304525.87,1.75,-1.3300000429153442,-3.009999990463257
1744304525.87,2.380000114440918,0.8400000333786011,-3.0799999237060547
1744304525.87,2.5199999809265137,2.5899999141693115,-3.0799999237060547
1744304525.87,2.0999999046325684,4.199999809265137,-3.2899999618530273
1744304525.87,2.799999952316284,4.340000152587891,-3.7100000381469727
1744304525.87,3.2899999618530273,4.269999980926514,-4.199999809265137
1744304525.87,3.2899999618530273,3.640000104904175,-4.480000019073486
1744304525.945,3.2899999618530273,2.380000114440918,-4.619999885559082
1744304525.945,3.2899999618530273,1.8899999856948853,-5.110000133514404
1744304525.945,3.3600001335144043,1.6100000143051147,-5.179999828338623
1744304525.945,3.430000066757202,1.6100000143051147,-5.179999828338623
1744304525.945,3.5,1.8200000524520874,-5.179999828338623
1744304525.945,3.430000066757202,2.240000009536743,-4.900000095367432
1744304525.945,3.2899999618530273,2.5199999809265137,-4.550000190734863
1744304525.945,3.430000066757202,2.450000047683716,-4.130000114440918
1744304526.02,3.3600001335144043,2.1700000762939453,-3.7100000381469727
1744304526.02,2.7300000190734863,1.1200000047683716,-3.2899999618530273
1744304526.02,2.450000047683716,0.14000000059604645,-2.6600000858306885
1744304526.02,2.240000009536743,0.3499999940395355,-2.0299999713897705
1744304526.02,2.450000047683716,0.9800000190734863,-1.5399999618530273
1744304526.02,2.450000047683716,0.7699999809265137,-0.8400000333786011
1744304526.02,2.1700000762939453,-0.5600000023841858,-0.3499999940395355
1744304526.02,1.6800000667572021,-1.6800000667572021,0.07000000029802322
1744304526.094,1.4700000286102295,-1.9600000381469727,0.42000001668930054
1744304526.094,1.75,-2.1700000762939453,0.8400000333786011
1744304526.094,1.75,-2.5899999141693115,1.190000057220459
1744304526.094,1.3300000429153442,-3.5,1.3300000429153442
1744304526.094,0.9100000262260437,-4.269999980926514,0.9800000190734863
1744304526.094,1.3300000429153442,-4.059999942779541,0.42000001668930054
1744304526.094,2.1700000762939453,-2.5199999809265137,-0.14000000059604645
1744304526.094,2.6600000858306885,-0.6299999952316284,-0.7699999809265137
1744304526.168,2.940000057220459,0.8400000333786011,-1.2599999904632568
1744304526.168,2.940000057220459,1.2599999904632568,-1.4700000286102295
1744304526.168,2.6600000858306885,1.1200000047683716,-1.3300000429153442
1744304526.168,2.380000114440918,0.699999988079071,-1.190000057220459
1744304526.168,1.9600000381469727,0.14000000059604645,-0.8400000333786011
1744304526.168,1.9600000381469727,-0.14000000059604645,-0.49000000953674316
1744304526.168,2.0299999713897705,-0.49000000953674316,-0.07000000029802322
1744304526.168,1.75,-1.190000057220459,0.42000001668930054
1744304526.243,0.9800000190734863,-2.1700000762939453,0.8400000333786011
1744304526.243,0.6299999952316284,-2.5199999809265137,1.190000057220459
1744304526.243,0.699999988079071,-1.399999976158142,1.5399999618530273
1744304526.243,0.8400000333786011,-0.07000000029802322,1.8899999856948853
1744304526.243,0.5600000023841858,0.5600000023841858,2.309999942779541
1744304526.243,0.21000000834465027,0.21000000834465027,2.799999952316284
1744304526.243,-0.42000001668930054,-0.49000000953674316,3.430000066757202
1744304526.243,-0.5600000023841858,-1.399999976158142,3.8499999046325684
1744304526.317,-0.7699999809265137,-2.5899999141693115,4.199999809265137
1744304526.317,-0.9100000262260437,-3.7799999713897705,4.340000152587891
1744304526.317,-0.699999988079071,-3.9200000762939453,4.550000190734863
1744304526.317,-0.6299999952316284,-3.7100000381469727,4.480000019073486
1744304526.317,-0.6299999952316284,-3.7100000381469727,4.409999847412109
1744304526.317,-0.7699999809265137,-4.059999942779541,4.340000152587891
1744304526.317,-0.8400000333786011,-4.550000190734863,4.130000114440918
1744304526.317,-0.14000000059604645,-4.409999847412109,4.059999942779541
1744304526.392,-0.42000001668930054,-5.039999961853027,4.059999942779541
1744304526.392,-0.8400000333786011,-4.690000057220459,3.8499999046325684
1744304526.392,-0.8400000333786011,-4.199999809265137,3.5
1744304526.392,0.42000001668930054,-3.7799999713897705,3.5
1744304526.392,1.0499999523162842,-2.799999952316284,3.3600001335144043
1744304526.392,1.2599999904632568,-4.059999942779541,4.059999942779541
1744304526.392,2.240000009536743,-3.8499999046325684,3.2899999618530273
1744304526.392,2.0999999046325684,-3.7100000381469727,3.3600001335144043
1744304526.466,1.5399999618530273,-6.789999961853027,3.569999933242798
1744304526.466,1.4700000286102295,-10.010000228881836,2.799999952316284
1744304526.466,2.0999999046325684,-10.149999618530273,2.5899999141693115
1744304526.466,3.569999933242798,-8.470000267028809,2.450000047683716
1744304526.466,4.96999979019165,-5.670000076293945,1.6100000143051147
1744304526.466,4.619999885559082,-7.630000114440918,2.309999942779541
1744304526.466,5.25,-12.600000381469727,2.240000009536743
1744304526.466,6.720000267028809,-6.369999885559082,-0.6299999952316284
1744304526.54,6.230000019073486,-3.7799999713897705,-0.07000000029802322
1744304526.54,4.760000228881836,-10.850000381469727,0.6299999952316284
1744304526.54,5.880000114440918,-10.289999961853027,-1.8899999856948853
1744304526.54,7.559999942779541,-2.380000114440918,-1.3300000429153442
1744304526.54,9.520000457763672,2.799999952316284,-1.9600000381469727
1744304526.54,10.010000228881836,4.480000019073486,-3.640000104904175
1744304526.54,7.070000171661377,2.309999942779541,-3.990000009536743
1744304526.54,5.110000133514404,-0.2800000011920929,-3.569999933242798
1744304526.615,5.389999866485596,-0.42000001668930054,-2.940000057220459
1744304526.615,6.230000019073486,1.9600000381469727,-3.430000066757202
1744304526.615,6.019999980926514,4.340000152587891,-3.430000066757202
1744304526.615,5.460000038146973,3.2200000286102295,-3.430000066757202
1744304526.615,6.369999885559082,1.9600000381469727,-4.059999942779541
1744304526.615,7.630000114440918,5.25,-4.760000228881836
1744304526.615,7.630000114440918,7.630000114440918,-5.179999828338623
1744304526.615,6.159999847412109,5.670000076293945,-5.110000133514404
1744304526.689,4.480000019073486,2.940000057220459,-5.039999961853027
1744304526.689,3.640000104904175,1.8899999856948853,-4.130000114440918
1744304526.689,3.7100000381469727,3.640000104904175,-3.009999990463257
1744304526.689,4.199999809265137,7.559999942779541,-2.240000009536743
1744304526.689,3.990000009536743,10.640000343322754,-1.399999976158142
1744304526.689,3.569999933242798,10.850000381469727,-0.9100000262260437
1744304526.689,3.5,10.289999961853027,-0.8400000333786011
1744304526.689,2.7300000190734863,9.65999984741211,-0.699999988079071
1744304526.764,2.0999999046325684,6.159999847412109,-0.3499999940395355
1744304526.764,1.5399999618530273,1.0499999523162842,0
1744304526.764,1.6800000667572021,-1.6800000667572021,0.21000000834465027
1744304526.764,2.309999942779541,-1.8200000524520874,0.2800000011920929
1744304526.764,3.009999990463257,-1.399999976158142,0.3499999940395355
1744304526.764,2.870000123977661,-1.5399999618530273,0.2800000011920929
1744304526.764,2.450000047683716,-1.8200000524520874,0.14000000059604645
1744304526.764,2.309999942779541,-1.1200000047683716,-0.14000000059604645
1744304526.838,2.380000114440918,-0.3499999940395355,-0.6299999952316284
1744304526.838,2.5199999809265137,-0.07000000029802322,-0.9800000190734863
1744304526.838,2.5199999809265137,0.14000000059604645,-1.1200000047683716
1744304526.838,2.799999952316284,-0.21000000834465027,-0.9100000262260437
1744304526.838,3.0799999237060547,-0.8400000333786011,-0.6299999952316284
1744304526.838,3.430000066757202,-2.240000009536743,-0.3499999940395355
1744304526.838,3.0799999237060547,-4.550000190734863,-0.07000000029802322
1744304526.838,2.309999942779541,-7.559999942779541,0.07000000029802322
1744304526.912,1.399999976158142,-7.909999847412109,-0.14000000059604645
1744304526.912,2.1700000762939453,-7.699999809265137,-0.49000000953674316
1744304526.912,2.5199999809265137,-6.650000095367432,-1.190000057220459
1744304526.912,2.5199999809265137,-5.179999828338623,-1.75
1744304526.912,2.870000123977661,-3.7100000381469727,-2.5199999809265137
1744304526.912,3.2200000286102295,-2.309999942779541,-3.009999990463257
1744304526.912,3.430000066757202,-1.190000057220459,-3.5
1744304526.912,3.430000066757202,0.14000000059604645,-3.9200000762939453
1744304526.987,3.009999990463257,1.4700000286102295,-4.269999980926514
1744304526.987,2.6600000858306885,2.380000114440918,-4.269999980926514
1744304526.987,2.309999942779541,2.799999952316284,-4.199999809265137
1744304526.987,2.1700000762939453,3.569999933242798,-4.269999980926514
1744304526.987,2.0999999046325684,4.199999809265137,-4.340000152587891
1744304526.987,2.1700000762939453,4.619999885559082,-4.130000114440918
1744304526.987,2.0999999046325684,4.130000114440918,-3.990000009536743
1744304526.987,2.1700000762939453,3.640000104904175,-3.7799999713897705
1744304527.061,2.0999999046325684,3.8499999046325684,-3.9200000762939453
1744304527.061,2.0999999046325684,4.130000114440918,-4.130000114440918
1744304527.061,2.240000009536743,3.8499999046325684,-4.269999980926514
1744304527.061,2.450000047683716,3.009999990463257,-4.409999847412109
1744304527.061,2.6600000858306885,1.75,-4.480000019073486
1744304527.061,2.7300000190734863,0.3499999940395355,-4.619999885559082
1744304527.061,2.450000047683716,-0.6299999952316284,-4.550000190734863
1744304527.061,2.5199999809265137,-1.75,-4.130000114440918
1744304527.136,2.450000047683716,-2.0999999046325684,-3.7100000381469727
1744304527.136,2.0999999046325684,-1.9600000381469727,-3.5
1744304527.136,1.9600000381469727,-2.1700000762939453,-3.2899999618530273
1744304527.136,1.75,-2.5199999809265137,-3.1500000953674316
1744304527.136,1.5399999618530273,-2.380000114440918,-2.940000057220459
1744304527.136,1.190000057220459,-2.5199999809265137,-2.7300000190734863
1744304527.136,0.9800000190734863,-2.5899999141693115,-2.380000114440918
1744304527.136,0.699999988079071,-1.8200000524520874,-2.0299999713897705
1744304527.21,0.42000001668930054,-0.8400000333786011,-1.4700000286102295
1744304527.21,0.5600000023841858,0.2800000011920929,-0.9800000190734863
1744304527.21,0,1.399999976158142,-0.5600000023841858
1744304527.21,-0.6299999952316284,1.75,-0.14000000059604645
1744304527.21,-1.190000057220459,1.3300000429153442,0.14000000059604645
1744304527.21,-1.5399999618530273,0.7699999809265137,0.3499999940395355
1744304527.21,-1.8899999856948853,0.8400000333786011,0.49000000953674316
1744304527.21,-2.1700000762939453,1.3300000429153442,0.5600000023841858
1744304527.285,-2.0999999046325684,2.450000047683716,0.2800000011920929
1744304527.285,-1.6800000667572021,4.199999809265137,-0.14000000059604645
1744304527.285,-1.190000057220459,6.230000019073486,-0.8400000333786011
1744304527.285,-0.7699999809265137,8.050000190734863,-1.4700000286102295
1744304527.285,-0.5600000023841858,9.3100004196167,-1.9600000381469727
1744304527.285,-0.3499999940395355,9.380000114440918,-2.240000009536743
1744304527.285,-0.14000000059604645,8.470000267028809,-2.309999942779541
1744304527.285,-0.14000000059604645,6.789999961853027,-2.450000047683716
1744304527.359,0,5.25,-2.309999942779541
1744304527.359,0.21000000834465027,4.059999942779541,-2.0999999046325684
1744304527.359,0.5600000023841858,3.2200000286102295,-1.75
1744304527.359,1.3300000429153442,2.7300000190734863,-2.0999999046325684
1744304527.359,0.699999988079071,-0.21000000834465027,-0.9800000190734863
1744304527.359,0.8400000333786011,-5.320000171661377,-0.14000000059604645
1744304527.359,2.240000009536743,-4.619999885559082,-0.699999988079071
1744304527.359,2.240000009536743,2.450000047683716,-3.569999933242798
1744304527.433,-0.49000000953674316,-2.0299999713897705,-3.430000066757202
1744304527.433,0.5600000023841858,-18.829999923706055,-1.190000057220459
1744304527.433,3.9200000762939453,-16.309999465942383,-3.0799999237060547
1744304527.433,4.690000057220459,0.5600000023841858,-3.569999933242798
1744304527.433,5.809999942779541,0.9100000262260437,-1.6100000143051147
1744304527.433,5.880000114440918,-5.53000020980835,-0.21000000834465027
1744304527.433,2.240000009536743,-5.880000114440918,1.399999976158142
1744304527.433,0.49000000953674316,-7.070000171661377,2.240000009536743
1744304527.507,1.5399999618530273,-9.730000495910645,3.7100000381469727
1744304527.507,2.6600000858306885,-11.40999984741211,3.9200000762939453
1744304527.507,2.5199999809265137,-12.739999771118164,3.430000066757202
1744304527.507,3.2899999618530273,-8.470000267028809,2.380000114440918
1744304527.507,4.130000114440918,-3.8499999046325684,2.0999999046325684
1744304527.507,3.5,-6.230000019073486,1.75
1744304527.507,1.5399999618530273,-11.480000495910645,0.7699999809265137
1744304527.507,0.21000000834465027,-13.440000534057617,0.5600000023841858
1744304527.582,0.699999988079071,-12.739999771118164,1.2599999904632568
1744304527.582,2.309999942779541,-12.670000076293945,1.6100000143051147
1744304527.582,3.3600001335144043,-9.520000457763672,1.8899999856948853
1744304527.582,3.7799999713897705,-3.5,2.0999999046325684
1744304527.582,3.990000009536743,2.0299999713897705,1.8200000524520874
1744304527.582,3.7799999713897705,3.640000104904175,1.190000057220459
1744304527.582,2.309999942779541,1.3300000429153442,0.8400000333786011
1744304527.582,0.8400000333786011,-2.240000009536743,0.7699999809265137
1744304527.657,0.7699999809265137,-5.949999809265137,0.8400000333786011
1744304527.657,0.9800000190734863,-8.470000267028809,0.9100000262260437
1744304527.657,1.3300000429153442,-10.359999656677246,1.190000057220459
1744304527.657,1.8200000524520874,-11.34000015258789,1.8899999856948853
1744304527.657,2.870000123977661,-10.010000228881836,2.799999952316284
1744304527.657,3.5,-8.329999923706055,3.2899999618530273
1744304527.657,3.0799999237060547,-8.399999618530273,3.430000066757202
1744304527.657,1.9600000381469727,-9.520000457763672,3.5
1744304527.731,1.4700000286102295,-9.9399995803833,3.640000104904175
1744304527.731,1.399999976158142,-8.399999618530273,3.7100000381469727
1744304527.731,1.9600000381469727,-5.599999904632568,3.640000104904175
1744304527.731,2.7300000190734863,-3.5,3.640000104904175
1744304527.731,2.7300000190734863,-3.7799999713897705,3.990000009536743
1744304527.731,2.5199999809265137,-5.949999809265137,4.199999809265137
1744304527.731,2.0999999046325684,-8.470000267028809,4.480000019073486
1744304527.731,1.2599999904632568,-10.989999771118164,4.760000228881836
1744304527.805,0.8400000333786011,-12.390000343322754,4.550000190734863
1744304527.805,0.8400000333786011,-12.460000038146973,4.480000019073486
1744304527.805,1.2599999904632568,-11.34000015258789,4.690000057220459
1744304527.805,1.4700000286102295,-9.9399995803833,4.619999885559082
1744304527.805,2.0999999046325684,-8.819999694824219,4.199999809265137
1744304527.805,2.450000047683716,-7.210000038146973,3.7100000381469727
1744304527.805,2.5199999809265137,-6.090000152587891,3.430000066757202
1744304527.805,2.5899999141693115,-6.510000228881836,2.799999952316284
1744304527.879,2.240000009536743,-6.789999961853027,2.380000114440918
1744304527.879,1.5399999618530273,-7.139999866485596,2.240000009536743
1744304527.879,1.4700000286102295,-7.210000038146973,2.1700000762939453
1744304527.879,1.2599999904632568,-6.860000133514404,1.9600000381469727
1744304527.879,0.7699999809265137,-6.159999847412109,1.9600000381469727
1744304527.879,0.699999988079071,-5.740000247955322,1.9600000381469727
1744304527.879,1.2599999904632568,-5.25,2.309999942779541
1744304527.879,1.0499999523162842,-5.039999961853027,3.1500000953674316
1744304527.954,0.49000000953674316,-5.320000171661377,4.409999847412109
1744304527.954,-0.21000000834465027,-5.740000247955322,5.670000076293945
1744304527.954,-0.42000001668930054,-6.650000095367432,6.579999923706055
1744304527.954,-1.0499999523162842,-7.909999847412109,7.349999904632568
1744304527.954,-1.4700000286102295,-8.399999618530273,7.840000152587891
1744304527.954,-1.5399999618530273,-9.3100004196167,8.050000190734863
1744304527.954,-1.6100000143051147,-10.430000305175781,8.050000190734863
1744304527.954,-1.75,-12.039999961853027,7.699999809265137
1744304528.029,-1.5399999618530273,-13.230000495910645,7.210000038146973
1744304528.029,-1.190000057220459,-13.15999984741211,6.579999923706055
1744304528.029,-0.9800000190734863,-12.180000305175781,6.019999980926514
1744304528.029,-0.5600000023841858,-11.130000114440918,5.320000171661377
1744304528.029,-0.8400000333786011,-9.869999885559082,4.550000190734863
1744304528.029,-1.0499999523162842,-8.609999656677246,4.059999942779541
1744304528.029,-0.3499999940395355,-6.789999961853027,3.640000104904175
1744304528.029,0.42000001668930054,-4.829999923706055,3.2200000286102295
1744304528.103,0.7699999809265137,-3.3600001335144043,2.5199999809265137
1744304528.103,0.699999988079071,-2.870000123977661,1.75
1744304528.103,0.7699999809265137,-2.6600000858306885,1.190000057220459
1744304528.103,0.699999988079071,-3.009999990463257,0.699999988079071
1744304528.103,0.3499999940395355,-4.409999847412109,0.14000000059604645
1744304528.103,0.21000000834465027,-4.829999923706055,-0.49000000953674316
1744304528.103,0.3499999940395355,-3.7100000381469727,-1.0499999523162842
1744304528.103,0.9800000190734863,-1.0499999523162842,-1.5399999618530273
1744304528.177,1.4700000286102295,1.1200000047683716,-2.1700000762939453
1744304528.177,1.5399999618530273,2.380000114440918,-2.799999952316284
1744304528.177,1.6100000143051147,2.6600000858306885,-3.5
1744304528.177,1.5399999618530273,2.799999952316284,-3.9200000762939453
1744304528.177,1.2599999904632568,2.7300000190734863,-4.199999809265137
1744304528.177,1.1200000047683716,1.9600000381469727,-4.340000152587891
1744304528.177,1.1200000047683716,1.399999976158142,-4.199999809265137
1744304528.177,0.8400000333786011,1.190000057220459,-4.340000152587891
1744304528.251,0.49000000953674316,1.3300000429153442,-4.409999847412109
1744304528.251,0.2800000011920929,0.3499999940395355,-3.990000009536743
1744304528.251,-0.6299999952316284,-2.380000114440918,-3.3600001335144043
1744304528.251,-1.2599999904632568,-6.159999847412109,-2.6600000858306885
1744304528.251,-1.6800000667572021,-9.65999984741211,-2.0999999046325684
1744304528.251,-2.0999999046325684,-12.180000305175781,-2.1700000762939453
1744304528.251,-2.5899999141693115,-12.880000114440918,-2.450000047683716
1744304528.251,-2.5199999809265137,-11.6899995803833,-2.6600000858306885
1744304528.326,-2.240000009536743,-9.65999984741211,-2.6600000858306885
1744304528.326,-2.240000009536743,-8.75,-2.5899999141693115
1744304528.326,-2.6600000858306885,-9.3100004196167,-2.380000114440918
1744304528.326,-3.1500000953674316,-11.0600004196167,-2.5199999809265137
1744304528.326,-3.7799999713897705,-12.460000038146973,-2.799999952316284
1744304528.326,-4.130000114440918,-12.390000343322754,-3.009999990463257
1744304528.326,-4.199999809265137,-11.480000495910645,-3.009999990463257
1744304528.326,-4.269999980926514,-10.850000381469727,-2.6600000858306885
1744304528.401,-4.130000114440918,-10.640000343322754,-2.5199999809265137
1744304528.401,-4.480000019073486,-11.899999618530273,-2.0299999713897705
1744304528.401,-5.039999961853027,-12.600000381469727,-1.75
1744304528.401,-5.389999866485596,-12.319999694824219,-1.6100000143051147
1744304528.401,-5.320000171661377,-11.619999885559082,-1.190000057220459
1744304528.401,-5.460000038146973,-12.25,-0.699999988079071
1744304528.401,-5.949999809265137,-14.630000114440918,-0.21000000834465027
1744304528.401,-6.300000190734863,-16.940000534057617,0.14000000059604645
1744304528.475,-6.300000190734863,-16.799999237060547,0.14000000059604645
1744304528.475,-5.880000114440918,-14.770000457763672,0.3499999940395355
1744304528.475,-5.670000076293945,-13.369999885559082,1.0499999523162842
1744304528.475,-5.460000038146973,-13.789999961853027,2.0999999046325684
1744304528.475,-5.740000247955322,-14.90999984741211,2.799999952316284
1744304528.475,-6.300000190734863,-14.90999984741211,3.1500000953674316
1744304528.475,-6.510000228881836,-14.140000343322754,3.8499999046325684
1744304528.475,-6.440000057220459,-13.020000457763672,4.550000190734863
1744304528.549,-7,-10.989999771118164,5.179999828338623
1744304528.549,-7.840000152587891,-8.75,5.740000247955322
1744304528.549,-8.119999885559082,-6.860000133514404,6.019999980926514
1744304528.549,-8.470000267028809,-5.740000247955322,6.510000228881836
1744304528.549,-8.960000038146973,-5.670000076293945,6.650000095367432
1744304528.549,-9.380000114440918,-5.809999942779541,7.139999866485596
1744304528.549,-9.59000015258789,-6.929999828338623,8.050000190734863
1744304528.549,-10.079999923706055,-8.960000038146973,8.890000343322754
1744304528.623,-10.920000076293945,-11.619999885559082,9.520000457763672
1744304528.623,-11.6899995803833,-14.279999732971191,9.869999885559082
1744304528.623,-12.039999961853027,-16.450000762939453,10.079999923706055
1744304528.623,-12.600000381469727,-17.850000381469727,9.869999885559082
1744304528.623,-12.880000114440918,-17.71000099182129,9.520000457763672
1744304528.623,-13.15999984741211,-16.239999771118164,8.960000038146973
1744304528.623,-12.880000114440918,-14,8.260000228881836
1744304528.623,-12.180000305175781,-11.899999618530273,7.699999809265137
1744304528.698,-11.970000267028809,-10.640000343322754,7.559999942779541
1744304528.698,-12.039999961853027,-10.569999694824219,7.28000020980835
1744304528.698,-12.670000076293945,-9.800000190734863,6.789999961853027
1744304528.698,-12.880000114440918,-8.050000190734863,6.440000057220459
1744304528.698,-12.180000305175781,-5.389999866485596,6.369999885559082
1744304528.698,-11.550000190734863,-2.0999999046325684,6.230000019073486
1744304528.698,-11.40999984741211,1.2599999904632568,5.740000247955322
1744304528.698,-11.34000015258789,3.990000009536743,5.25
1744304528.773,-11.480000495910645,6.230000019073486,4.829999923706055
1744304528.773,-11.619999885559082,8.75,4.269999980926514
1744304528.773,-11.270000457763672,10.989999771118164,3.990000009536743
1744304528.773,-10.779999732971191,12.739999771118164,4.269999980926514
1744304528.773,-10.920000076293945,12.670000076293945,4.760000228881836
1744304528.773,-11.829999923706055,8.680000305175781,5.110000133514404
1744304528.773,-13.020000457763672,2.0999999046325684,4.96999979019165
1744304528.773,-14.489999771118164,-2.940000057220459,4.690000057220459
1744304528.847,-15.260000228881836,-2.7300000190734863,4.480000019073486
1744304528.847,-15.050000190734863,1.0499999523162842,4.900000095367432
1744304528.847,-14.489999771118164,5.179999828338623,5.740000247955322
1744304528.847,-14.5600004196167,8.399999618530273,6.579999923706055
1744304528.847,-15.190000534057617,11.480000495910645,7.139999866485596
1744304528.847,-15.960000038146973,13.300000190734863,7.349999904632568
1744304528.847,-16.520000457763672,13.930000305175781,7.699999809265137
1744304528.847,-17.010000228881836,14.279999732971191,8.1899995803833
1744304528.921,-17.71000099182129,14.069999694824219,8.960000038146973
1744304528.921,-19.040000915527344,12.739999771118164,10.010000228881836
1744304528.921,-19.25,11.480000495910645,11.199999809265137
1744304528.921,-19.8799991607666,9.520000457763672,12.670000076293945
1744304528.921,-21.280000686645508,9.239999771118164,14.420000076293945
1744304528.921,-22.96000099182129,11.480000495910645,15.960000038146973
1744304528.921,-24.920000076293945,14.350000381469727,17.43000030517578
1744304528.921,-26.600000381469727,18.1299991607666,18.829999923706055
1744304528.995,-28.700000762939453,21.6299991607666,19.670000076293945
1744304528.995,-31.219999313354492,23.3799991607666,20.510000228881836
1744304528.995,-34.29999923706055,22.68000030517578,21.350000381469727
1744304528.995,-38.92000198364258,21.420000076293945,21.84000015258789
1744304528.995,-45.08000183105469,18.479999542236328,22.260000228881836
1744304528.995,-52.0099983215332,17.010000228881836,21.979999542236328
1744304528.995,-57.68000030517578,17.639999389648438,22.81999969482422
1744304528.995,-64.33000183105469,15.960000038146973,23.729999542236328
1744304529.07,-70.20999908447266,10.5,24.56999969482422
1744304529.07,-61.67000198364258,26.670000076293945,22.68000030517578
1744304529.07,-70.06999969482422,18.969999313354492,25.969999313354492
1744304529.07,-87.91999816894531,3.0799999237060547,39.20000076293945
1744304529.07,-102.9000015258789,-15.260000228881836,45.0099983215332
1744304529.07,-101.01000213623047,-17.989999771118164,41.369998931884766
1744304529.07,-90.93000030517578,-15.119999885559082,38.0099983215332
1744304529.07,-93.02999877929688,-30.100000381469727,40.25
1744304529.145,-77.62999725341797,-31.219999313354492,44.79999923706055
1744304529.145,-71.4000015258789,-43.04999923706055,39.689998626708984
1744304529.145,-54.31999969482422,-28.630001068115234,34.09000015258789
1744304529.145,-53.970001220703125,-18.969999313354492,34.09000015258789
1744304529.145,-37.65999984741211,-18.1299991607666,31.71000099182129
1744304529.145,-33.67000198364258,-19.950000762939453,29.1200008392334
1744304529.145,-27.510000228881836,-19.389999389648438,18.969999313354492
1744304529.145,-22.329999923706055,-12.039999961853027,15.75
1744304529.219,-17.71000099182129,-14.5600004196167,13.440000534057617
1744304529.219,-13.579999923706055,-12.319999694824219,8.680000305175781
1744304529.219,-9.029999732971191,-8.680000305175781,4.480000019073486
1744304529.219,-2.240000009536743,-8.609999656677246,2.380000114440918
1744304529.219,3.0799999237060547,-5.25,-1.2599999904632568
1744304529.219,7.420000076293945,6.230000019073486,-6.720000267028809
1744304529.219,11.480000495910645,15.399999618530273,-11.130000114440918
1744304529.219,18.200000762939453,17.850000381469727,-15.890000343322754
1744304529.293,24.360000610351562,15.819999694824219,-19.18000030517578
1744304529.293,27.790000915527344,13.789999961853027,-22.81999969482422
1744304529.293,28.630001068115234,17.219999313354492,-26.040000915527344
1744304529.293,20.299999237060547,26.46000099182129,-27.229999542236328
1744304529.293,13.649999618530273,38.709999084472656,-30.309999465942383
1744304529.293,11.40999984741211,52.709999084472656,-33.529998779296875
1744304529.293,14,70.7699966430664,-36.540000915527344
1744304529.293,15.399999618530273,82.18000030517578,-37.2400016784668
1744304529.368,16.799999237060547,87.70999908447266,-35.90999984741211
1744304529.368,15.960000038146973,88.62000274658203,-34.369998931884766
1744304529.368,14,82.5999984741211,-32.27000045776367
1744304529.368,14.770000457763672,68.25,-29.540000915527344
1744304529.368,19.46000099182129,50.75,-26.18000030517578
1744304529.368,23.520000457763672,33.529998779296875,-22.540000915527344
1744304529.368,26.880001068115234,12.670000076293945,-19.18000030517578
1744304529.368,31.71000099182129,-8.960000038146973,-15.470000267028809
1744304529.442,36.33000183105469,-31.43000030517578,-11.130000114440918
1744304529.442,34.15999984741211,-46.40999984741211,-8.399999618530273
1744304529.442,33.25,-51.380001068115234,-6.159999847412109
1744304529.442,39.47999954223633,-57.81999969482422,-0.5600000023841858
1744304529.442,51.099998474121094,-75.45999908447266,9.380000114440918
1744304529.442,64.68000030517578,-95.9000015258789,19.809999465942383
1744304529.442,76.51000213623047,-102.55000305175781,25.6200008392334
1744304529.442,86.44999694824219,-95.83000183105469,24.149999618530273
1744304529.517,84.48999786376953,-96.45999908447266,9.3100004196167
1744304529.517,64.61000061035156,-64.12000274658203,-7.070000171661377
1744304529.517,46.83000183105469,21.90999984741211,-10.569999694824219
1744304529.517,34.09000015258789,88.34000396728516,-2.6600000858306885
1744304529.517,25.6200008392334,76.2300033569336,5.039999961853027
1744304529.517,27.579999923706055,54.31999969482422,5.740000247955322
1744304529.517,32.619998931884766,46.130001068115234,-1.0499999523162842
1744304529.517,40.599998474121094,13.440000534057617,-10.850000381469727
1744304529.591,47.810001373291016,-23.799999237060547,-17.989999771118164
1744304529.591,51.099998474121094,-36.400001525878906,-20.229999542236328
1744304529.591,51.79999923706055,-26.46000099182129,-16.729999542236328
1744304529.591,46.40999984741211,-0.2800000011920929,-9.59000015258789
1744304529.591,34.439998626708984,30.309999465942383,-5.039999961853027
1744304529.591,29.329999923706055,45.63999938964844,-5.460000038146973
1744304529.591,31.149999618530273,32.40999984741211,-7.210000038146973
1744304529.591,32.619998931884766,10.569999694824219,-7.070000171661377
1744304529.665,33.040000915527344,-4.900000095367432,-4.96999979019165
1744304529.665,32.47999954223633,-16.8700008392334,-3.5
1744304529.665,32.40999984741211,-33.11000061035156,-3.8499999046325684
1744304529.665,32.83000183105469,-47.18000030517578,-4.059999942779541
1744304529.665,32.40999984741211,-50.61000061035156,-2.5199999809265137
1744304529.665,31.360000610351562,-46.060001373291016,-0.49000000953674316
1744304529.665,30.380001068115234,-42.13999938964844,0.699999988079071
1744304529.665,28.90999984741211,-36.189998626708984,0.9100000262260437
1744304529.74,28.90999984741211,-25.34000015258789,0.699999988079071
1744304529.74,27.790000915527344,-21.350000381469727,1.0499999523162842
1744304529.74,26.040000915527344,-18.969999313354492,1.3300000429153442
1744304529.74,24.149999618530273,-14.699999809265137,0.3499999940395355
1744304529.74,24.360000610351562,-14,-0.9100000262260437
1744304529.74,24.639999389648438,-10.430000305175781,-2.1700000762939453
1744304529.74,23.239999771118164,-6.579999923706055,-3.430000066757202
1744304529.74,22.1200008392334,-5.949999809265137,-4.829999923706055
1744304529.814,21.90999984741211,-5.110000133514404,-5.880000114440918
1744304529.814,21.770000457763672,-0.9100000262260437,-6.159999847412109
1744304529.814,20.860000610351562,0.6299999952316284,-5.949999809265137
1744304529.814,20.229999542236328,-3.009999990463257,-5.949999809265137
1744304529.814,18.899999618530273,-7.980000019073486,-5.670000076293945
1744304529.814,18.1299991607666,-10.010000228881836,-5.460000038146973
1744304529.814,17.360000610351562,-13.510000228881836,-5.599999904632568
1744304529.814,16.799999237060547,-17.290000915527344,-5.740000247955322
1744304529.888,16.799999237060547,-15.399999618530273,-5.389999866485596
1744304529.888,17.360000610351562,-10.779999732971191,-4.96999979019165
1744304529.888,16.940000534057617,-6.300000190734863,-4.760000228881836
1744304529.888,15.960000038146973,-6.159999847412109,-4.690000057220459
1744304529.888,15.75,-7.769999980926514,-3.9200000762939453
1744304529.888,16.239999771118164,-8.119999885559082,-1.8899999856948853
1744304529.888,16.520000457763672,-10.5,0.07000000029802322
1744304529.888,15.75,-17.71000099182129,1.6800000667572021
1744304529.963,13.020000457763672,-26.389999389648438,2.799999952316284
1744304529.963,13.020000457763672,-31.010000228881836,4.130000114440918
1744304529.963,13.579999923706055,-31.920000076293945,5.179999828338623
1744304529.963,12.880000114440918,-33.25,4.900000095367432
1744304529.963,10.920000076293945,-34.790000915527344,4.340000152587891
1744304529.963,10.920000076293945,-32.27000045776367,3.990000009536743
1744304529.963,11.550000190734863,-26.950000762939453,3.9200000762939453
1744304529.963,10.289999961853027,-24.219999313354492,3.7799999713897705
1744304530.037,8.260000228881836,-24.079999923706055,3.2200000286102295
1744304530.037,6.650000095367432,-25.969999313354492,2.6600000858306885
1744304530.037,5.039999961853027,-28.84000015258789,2.380000114440918
1744304530.037,3.3600001335144043,-28.90999984741211,2.0999999046325684
1744304530.037,2.240000009536743,-26.530000686645508,2.0999999046325684
1744304530.037,3.5,-20.719999313354492,3.1500000953674316
1744304530.037,4.550000190734863,-17.56999969482422,4.480000019073486
1744304530.037,4.550000190734863,-20.649999618530273,6.019999980926514
1744304530.112,3.569999933242798,-24.989999771118164,7.070000171661377
1744304530.112,0.6299999952316284,-32.34000015258789,7.630000114440918
1744304530.112,-1.399999976158142,-38.150001525878906,8.1899995803833
1744304530.112,-4.480000019073486,-42.349998474121094,8.609999656677246
1744304530.112,-7.210000038146973,-43.470001220703125,9.380000114440918
1744304530.112,-5.389999866485596,-34.02000045776367,11.0600004196167
1744304530.112,-3.430000066757202,-15.609999656677246,12.319999694824219
1744304530.112,-3.9200000762939453,-8.399999618530273,12.739999771118164
1744304530.186,-6.510000228881836,-14.350000381469727,13.230000495910645
1744304530.186,-9.65999984741211,-21.21000099182129,13.720000267028809
1744304530.186,-13.510000228881836,-27.09000015258789,13.789999961853027
1744304530.186,-16.520000457763672,-27.579999923706055,13.789999961853027
1744304530.186,-18.34000015258789,-29.329999923706055,14.140000343322754
1744304530.186,-19.809999465942383,-24.989999771118164,15.399999618530273
1744304530.186,-22.190000534057617,-21.06999969482422,16.309999465942383
1744304530.186,-27.020000457763672,-32.34000015258789,17.219999313354492
1744304530.26,-34.720001220703125,-54.529998779296875,19.18000030517578
1744304530.26,-35.560001373291016,-70.06999969482422,21.700000762939453
1744304530.26,-37.380001068115234,-83.72000122070312,25.6200008392334
1744304530.26,-39.40999984741211,-91.62999725341797,31.360000610351562
1744304530.26,-44.029998779296875,-94.43000030517578,36.959999084472656
1744304530.26,-49.84000015258789,-89.11000061035156,40.040000915527344
1744304530.26,-58.45000076293945,-81.55000305175781,40.599998474121094
1744304530.26,-63.77000045776367,-76.44000244140625,37.869998931884766
1744304530.335,-65.44999694824219,-71.05000305175781,33.18000030517578
1744304530.335,-65.0999984741211,-71.61000061035156,29.75
1744304530.335,-63,-66.77999877929688,27.3700008392334
1744304530.335,-60.900001525878906,-58.79999923706055,24.56999969482422
1744304530.335,-54.599998474121094,-53.83000183105469,22.540000915527344
1744304530.335,-50.189998626708984,-49.4900016784668,21.06999969482422
1744304530.335,-52.290000915527344,-37.65999984741211,18.690000534057617
1744304530.335,-53.689998626708984,-23.729999542236328,15.819999694824219
1744304530.41,-57.33000183105469,-14.210000038146973,14.980000495910645
1744304530.41,-59.290000915527344,-7.980000019073486,13.649999618530273
1744304530.41,-63.77000045776367,-14.84000015258789,16.309999465942383
1744304530.41,-70.62999725341797,-13.230000495910645,25.40999984741211
1744304530.41,-75.45999908447266,-18.1299991607666,31.010000228881836
1744304530.41,-77.13999938964844,-29.889999389648438,30.380001068115234
1744304530.41,-76.72000122070312,-32.060001373291016,29.260000228881836
1744304530.41,-75.73999786376953,-38.56999969482422,25.059999465942383
1744304530.484,-73.01000213623047,-41.22999954223633,20.09000015258789
1744304530.484,-69.79000091552734,-47.810001373291016,15.470000267028809
1744304530.484,-68.80999755859375,-52.290000915527344,9.800000190734863
1744304530.484,-69.58000183105469,-51.029998779296875,5.599999904632568
1744304530.484,-73.36000061035156,-48.790000915527344,6.789999961853027
1744304530.484,-78.4000015258789,-42.90999984741211,9.100000381469727
1744304530.484,-85.88999938964844,-30.100000381469727,13.510000228881836
1744304530.484,-88.05999755859375,-18.549999237060547,25.829999923706055
1744304530.558,-84.13999938964844,-12.390000343322754,41.22999954223633
1744304530.558,-82.87999725341797,6.369999885559082,51.65999984741211
1744304530.558,-81.55000305175781,30.030000686645508,54.31999969482422
1744304530.558,-79.87000274658203,28.06999969482422,45.56999969482422
1744304530.558,-79.23999786376953,17.989999771118164,21.139999389648438
1744304530.558,-76.6500015258789,-3.8499999046325684,13.369999885559082
1744304530.558,-61.31999969482422,-32.34000015258789,25.059999465942383
1744304530.558,-43.470001220703125,-56.97999954223633,40.810001373291016
1744304530.632,-28.420000076293945,-68.18000030517578,43.470001220703125
1744304530.632,-23.450000762939453,-70.9800033569336,40.810001373291016
1744304530.632,-20.579999923706055,-56.209999084472656,36.68000030517578
1744304530.632,-18.34000015258789,-30.030000686645508,34.09000015258789
1744304530.632,-18.34000015258789,6.579999923706055,41.439998626708984
1744304530.632,-18.200000762939453,40.31999969482422,32.7599983215332
1744304530.632,-8.960000038146973,63.209999084472656,28.630001068115234
1744304530.632,0.9100000262260437,67.9000015258789,22.329999923706055
1744304530.707,-6.300000190734863,84.3499984741211,26.18000030517578
1744304530.707,-14.350000381469727,78.05000305175781,22.81999969482422
1744304530.707,-2.5199999809265137,67.69000244140625,22.049999237060547
1744304530.707,9.59000015258789,59.36000061035156,21.90999984741211
1744304530.707,14.980000495910645,45.63999938964844,19.530000686645508
1744304530.707,18.059999465942383,31.639999389648438,22.049999237060547
1744304530.707,17.989999771118164,23.940000534057617,22.260000228881836
1744304530.707,19.18000030517578,21.84000015258789,18.969999313354492
1744304530.782,18.6200008392334,19.600000381469727,17.360000610351562
1744304530.782,15.680000305175781,18.270000457763672,15.539999961853027
1744304530.782,21.559999465942383,16.170000076293945,16.940000534057617
1744304530.782,19.18000030517578,6.650000095367432,16.030000686645508
1744304530.782,18.829999923706055,-7.980000019073486,11.199999809265137
1744304530.782,22.190000534057617,-9.59000015258789,9.3100004196167
1744304530.782,23.100000381469727,-3.009999990463257,6.369999885559082
1744304530.782,24.079999923706055,4.269999980926514,1.5399999618530273
1744304530.856,24.360000610351562,13.020000457763672,-0.699999988079071
1744304530.856,21.420000076293945,23.030000686645508,-4.619999885559082
1744304530.856,19.040000915527344,31.290000915527344,-11.270000457763672
1744304530.856,14.630000114440918,27.649999618530273,-12.390000343322754
1744304530.856,10.640000343322754,12.600000381469727,-11.899999618530273
1744304530.856,5.039999961853027,-2.870000123977661,-10.220000267028809
1744304530.856,-0.5600000023841858,-14,-13.369999885559082
1744304530.856,-6.230000019073486,-23.65999984741211,-16.59000015258789
1744304530.93,-7.630000114440918,-32.47999954223633,-19.530000686645508
1744304530.93,-10.289999961853027,-40.529998779296875,-20.860000610351562
1744304530.93,-11.40999984741211,-44.939998626708984,-24.290000915527344
1744304530.93,-6.369999885559082,-43.88999938964844,-28.06999969482422
1744304530.93,4.900000095367432,-34.93000030517578,-29.75
1744304530.93,12.460000038146973,-28.350000381469727,-29.469999313354492
1744304530.93,18.760000228881836,-24.639999389648438,-30.309999465942383
1744304530.93,21.979999542236328,-14.630000114440918,-36.189998626708984
1744304531.004,26.31999969482422,-3.990000009536743,-39.619998931884766
1744304531.004,28.84000015258789,-11.970000267028809,-38.43000030517578
1744304531.004,40.599998474121094,-21.420000076293945,-35.70000076293945
1744304531.004,59.08000183105469,-11.899999618530273,-25.829999923706055
1744304531.004,66.91999816894531,17.850000381469727,-12.25
1744304531.004,48.15999984741211,42.06999969482422,3.2899999618530273
1744304531.004,18.760000228881836,49.42000198364258,10.920000076293945
1744304531.004,-5.809999942779541,55.58000183105469,12.949999809265137
1744304531.078,-4.199999809265137,52.08000183105469,13.230000495910645
1744304531.078,9.380000114440918,22.96000099182129,13.09000015258789
1744304531.078,25.200000762939453,-2.6600000858306885,16.030000686645508
1744304531.078,32.34000015258789,-6.650000095367432,22.260000228881836
1744304531.078,35.209999084472656,6.720000267028809,28.979999542236328
1744304531.078,42.70000076293945,15.470000267028809,31.920000076293945
1744304531.078,57.33000183105469,8.609999656677246,14.84000015258789
1744304531.078,88.97000122070312,-7.210000038146973,-13.649999618530273
1744304531.153,86.16999816894531,-21.700000762939453,-24.010000228881836
1744304531.153,27.860000610351562,0.49000000953674316,-25.549999237060547
1744304531.153,6.510000228881836,72.44999694824219,-23.450000762939453
1744304531.153,27.3700008392334,124.25,-5.389999866485596
1744304531.153,26.389999389648438,113.05000305175781,10.430000305175781
1744304531.153,56.13999938964844,14,18.760000228881836
1744304531.153,103.38999938964844,-97.2300033569336,22.889999389648438
1744304531.153,101.56999969482422,-130.8300018310547,6.300000190734863
1744304531.228,82.45999908447266,-40.880001068115234,-12.949999809265137
1744304531.228,67.4800033569336,47.7400016784668,-24.56999969482422
1744304531.228,57.189998626708984,44.45000076293945,-28.770000457763672
1744304531.228,42.90999984741211,-7.909999847412109,-23.450000762939453
1744304531.228,44.869998931884766,-58.029998779296875,-20.299999237060547
1744304531.228,50.75,-75.18000030517578,-23.940000534057617
1744304531.228,47.880001068115234,-50.68000030517578,-26.809999465942383
1744304531.228,41.650001525878906,-27.860000610351562,-29.190000534057617
1744304531.302,41.22999954223633,-21.06999969482422,-33.529998779296875
1744304531.302,45.0099983215332,-16.65999984741211,-37.939998626708984
1744304531.302,48.02000045776367,-17.56999969482422,-38.63999938964844
1744304531.302,47.880001068115234,-18.34000015258789,-36.959999084472656
1744304531.302,45.779998779296875,-18.479999542236328,-36.2599983215332
1744304531.302,45.43000030517578,-21.489999771118164,-36.959999084472656
1744304531.302,45.56999969482422,-24.850000381469727,-36.119998931884766
1744304531.302,45.779998779296875,-21.770000457763672,-34.439998626708984
1744304531.376,43.470001220703125,-19.46000099182129,-34.15999984741211
1744304531.376,39.7599983215332,-22.399999618530273,-34.650001525878906
1744304531.376,34.15999984741211,-30.65999984741211,-33.67000198364258
1744304531.376,27.790000915527344,-42.77000045776367,-31.56999969482422
1744304531.376,23.100000381469727,-52.63999938964844,-29.889999389648438
1744304531.376,20.440000534057617,-58.52000045776367,-27.510000228881836
1744304531.376,19.670000076293945,-61.38999938964844,-23.520000457763672
1744304531.376,19.739999771118164,-62.02000045776367,-18.34000015258789
1744304531.451,21.280000686645508,-57.75,-13.720000267028809
1744304531.451,22.610000610351562,-48.650001525878906,-9.9399995803833
1744304531.451,23.450000762939453,-38.08000183105469,-7
1744304531.451,22.81999969482422,-30.170000076293945,-4.059999942779541
1744304531.451,20.719999313354492,-25.969999313354492,-1.8899999856948853
1744304531.451,18.690000534057617,-24.43000030517578,-1.5399999618530273
1744304531.451,17.56999969482422,-24.989999771118164,-1.8899999856948853
1744304531.451,16.100000381469727,-27.579999923706055,-1.8899999856948853
1744304531.526,13.930000305175781,-30.100000381469727,-1.8899999856948853
1744304531.526,11.130000114440918,-32.34000015258789,-1.8899999856948853
1744304531.526,9.100000381469727,-34.650001525878906,-1.5399999618530273
1744304531.526,7.630000114440918,-34.09000015258789,-1.3300000429153442
1744304531.526,7.559999942779541,-29.540000915527344,-0.6299999952316284
1744304531.526,9.59000015258789,-23.239999771118164,0.21000000834465027
1744304531.526,11.6899995803833,-19.18000030517578,0.7699999809265137
1744304531.526,11.829999923706055,-20.510000228881836,1.2599999904632568
1744304531.6,10.989999771118164,-23.520000457763672,1.190000057220459
1744304531.6,10.079999923706055,-25.270000457763672,0.7699999809265137
1744304531.6,8.890000343322754,-24.920000076293945,0.6299999952316284
1744304531.6,7.909999847412109,-23.59000015258789,0.3499999940395355
1744304531.6,6.789999961853027,-22.469999313354492,-0.21000000834465027
1744304531.6,6.230000019073486,-21.700000762939453,-0.42000001668930054
1744304531.6,5.809999942779541,-20.09000015258789,-0.42000001668930054
1744304531.6,5.809999942779541,-18.34000015258789,-1.0499999523162842
1744304531.674,6.230000019073486,-17.989999771118164,-1.8899999856948853
1744304531.674,6.860000133514404,-19.110000610351562,-3.3600001335144043
1744304531.674,7.559999942779541,-20.719999313354492,-5.039999961853027
1744304531.674,7.980000019073486,-21.770000457763672,-7.210000038146973
1744304531.674,8.470000267028809,-20.93000030517578,-9.520000457763672
1744304531.674,9.170000076293945,-18.479999542236328,-12.109999656677246
1744304531.674,9.449999809265137,-15.609999656677246,-14.699999809265137
1744304531.674,9.730000495910645,-14.069999694824219,-17.290000915527344
1744304531.748,9.800000190734863,-13.579999923706055,-19.739999771118164
1744304531.748,10.010000228881836,-14.069999694824219,-22.329999923706055
1744304531.748,10.079999923706055,-13.720000267028809,-24.639999389648438
1744304531.748,10.640000343322754,-11.40999984741211,-26.880001068115234
1744304531.748,11.6899995803833,-7.420000076293945,-28.630001068115234
1744304531.748,13.020000457763672,-4.059999942779541,-29.81999969482422
1744304531.748,13.230000495910645,-4.059999942779541,-30.799999237060547
1744304531.748,12.670000076293945,-8.329999923706055,-31.780000686645508
1744304531.823,12.460000038146973,-14.5600004196167,-32.83000183105469
1744304531.823,12.460000038146973,-19.670000076293945,-34.02000045776367
1744304531.823,11.6899995803833,-21.770000457763672,-35.06999969482422
1744304531.823,11.199999809265137,-21.84000015258789,-35.90999984741211
1744304531.823,10.850000381469727,-22.81999969482422,-35.84000015258789
1744304531.823,10.640000343322754,-27.229999542236328,-35.42000198364258
1744304531.823,9.380000114440918,-27.09000015258789,-34.15999984741211
1744304531.823,8.260000228881836,-22.75,-32.900001525878906
1744304531.898,7,-20.93000030517578,-32.130001068115234
1744304531.898,4.690000057220459,-23.239999771118164,-31.639999389648438
1744304531.898,2.380000114440918,-28.21000099182129,-30.799999237060547
1744304531.898,0.07000000029802322,-32.7599983215332,-30.030000686645508
1744304531.898,-0.5600000023841858,-36.88999938964844,-29.049999237060547
1744304531.898,-1.399999976158142,-40.31999969482422,-27.579999923706055
1744304531.898,-3.9200000762939453,-44.099998474121094,-26.110000610351562
1744304531.898,-4.340000152587891,-43.2599983215332,-24.360000610351562
1744304531.972,-4.480000019073486,-29.81999969482422,-20.440000534057617
1744304531.972,-6.090000152587891,-12.319999694824219,-17.56999969482422
1744304531.972,-8.680000305175781,-4.96999979019165,-17.850000381469727
1744304531.972,-10.359999656677246,-13.720000267028809,-17.920000076293945
1744304531.972,-13.579999923706055,-21,-14.84000015258789
1744304531.972,-20.510000228881836,-17.149999618530273,-10.779999732971191
1744304531.972,-27.020000457763672,-9.730000495910645,-7.28000020980835
1744304531.972,-31.079999923706055,-5.670000076293945,-4.480000019073486
1744304532.046,-34.439998626708984,-6.720000267028809,-2.240000009536743
1744304532.046,-38.709999084472656,-10.640000343322754,0.07000000029802322
1744304532.046,-43.61000061035156,-12.039999961853027,3.2200000286102295
1744304532.046,-47.11000061035156,-11.6899995803833,6.860000133514404
1744304532.046,-50.470001220703125,-11.829999923706055,11.480000495910645
1744304532.046,-55.93000030517578,-19.739999771118164,16.799999237060547
1744304532.046,-67.34000396728516,-35.630001068115234,20.93000030517578
1744304532.046,-76.51000213623047,-52.849998474121094,24.290000915527344
1744304532.12,-87.5,-66.91999816894531,29.190000534057617
1744304532.12,-89.31999969482422,-72.59000396728516,36.81999969482422
1744304532.12,-87.29000091552734,-62.439998626708984,42.06999969482422
1744304532.12,-83.2300033569336,-50.61000061035156,46.689998626708984
1744304532.12,-83.51000213623047,-42.560001373291016,55.09000015258789
1744304532.12,-66.01000213623047,-35.13999938964844,60.54999923706055
1744304532.12,-71.19000244140625,-28.979999542236328,63
1744304532.12,-65.30999755859375,-22.260000228881836,65.7300033569336
1744304532.195,-57.33000183105469,-15.680000305175781,67.4800033569336
1744304532.195,-48.790000915527344,-3.3600001335144043,66.8499984741211
1744304532.195,-44.17000198364258,10.640000343322754,68.38999938964844
1744304532.195,-41.58000183105469,25.059999465942383,70.13999938964844
1744304532.195,-42.42000198364258,35.349998474121094,70.84000396728516
1744304532.195,-43.540000915527344,41.5099983215332,68.87999725341797
1744304532.195,-42,46.27000045776367,68.45999908447266
1744304532.195,-36.470001220703125,55.09000015258789,67.4800033569336
1744304532.269,-40.31999969482422,66.01000213623047,66.29000091552734
1744304532.269,-38.36000061035156,73.77999877929688,62.439998626708984
1744304532.269,-36.88999938964844,77.06999969482422,61.040000915527344
1744304532.269,-33.810001373291016,78.75,59.43000030517578
1744304532.269,-28.280000686645508,80.08000183105469,57.959999084472656
1744304532.269,-23.450000762939453,85.05000305175781,55.29999923706055
1744304532.269,-16.3799991607666,91.9800033569336,53.130001068115234
1744304532.269,-20.440000534057617,95.2699966430664,51.310001373291016
1744304532.344,-31.920000076293945,107.52000427246094,57.88999938964844
1744304532.344,-30.170000076293945,89.04000091552734,60.689998626708984
1744304532.344,-12.949999809265137,86.66000366210938,50.75
1744304532.344,-3.8499999046325684,102.69000244140625,38.92000198364258
1744304532.344,-4.900000095367432,97.30000305175781,38.849998474121094
1744304532.344,-6.019999980926514,96.66999816894531,43.2599983215332
1744304532.344,-6.579999923706055,92.05000305175781,44.939998626708984
1744304532.344,-11.0600004196167,88.12999725341797,47.599998474121094
1744304532.418,-18.549999237060547,80.70999908447266,49.560001373291016
1744304532.418,-13.020000457763672,77.41999816894531,46.7599983215332
1744304532.418,-8.399999618530273,77.7699966430664,47.38999938964844
1744304532.418,-8.960000038146973,76.09000396728516,48.29999923706055
1744304532.418,-8.539999961853027,64.47000122070312,48.29999923706055
1744304532.418,-6.159999847412109,58.65999984741211,49.4900016784668
1744304532.418,-10.640000343322754,52.08000183105469,48.790000915527344
1744304532.418,-8.75,52.5,49.349998474121094
1744304532.493,-7.420000076293945,51.939998626708984,46.20000076293945
1744304532.493,-10.850000381469727,49.279998779296875,43.81999969482422
1744304532.493,-10.079999923706055,44.45000076293945,39.900001525878906
1744304532.493,-4.059999942779541,42.90999984741211,34.58000183105469
1744304532.493,1.190000057220459,44.869998931884766,30.8700008392334
1744304532.493,1.5399999618530273,41.790000915527344,26.670000076293945
1744304532.493,0.3499999940395355,35.84000015258789,21.420000076293945
1744304532.493,1.5399999618530273,34.5099983215332,17.56999969482422
1744304532.567,0.8400000333786011,34.15999984741211,14.210000038146973
1744304532.567,-1.5399999618530273,34.790000915527344,10.710000038146973
1744304532.567,-2.309999942779541,34.5099983215332,8.1899995803833
1744304532.567,-2.1700000762939453,33.38999938964844,7
1744304532.567,-1.6100000143051147,32.970001220703125,6.369999885559082
1744304532.567,-2.1700000762939453,35.84000015258789,7.420000076293945
1744304532.567,-1.4700000286102295,40.11000061035156,7.349999904632568
1744304532.567,-3.430000066757202,43.189998626708984,8.75
1744304532.641,-3.1500000953674316,45.849998474121094,9.65999984741211
1744304532.641,-2.799999952316284,47.529998779296875,10.779999732971191
1744304532.641,-1.1200000047683716,47.67000198364258,15.050000190734863
1744304532.641,6.159999847412109,34.93000030517578,18.34000015258789
1744304532.641,17.360000610351562,5.880000114440918,20.229999542236328
1744304532.641,21.84000015258789,-11.130000114440918,19.809999465942383
1744304532.641,21.21000099182129,-4.409999847412109,16.799999237060547
1744304532.641,20.649999618530273,11.970000267028809,13.859999656677246
1744304532.716,19.809999465942383,24.71000099182129,10.640000343322754
1744304532.716,15.329999923706055,35.77000045776367,9.65999984741211
1744304532.716,14,50.189998626708984,7.490000247955322
1744304532.716,3.5,50.88999938964844,4.269999980926514
1744304532.716,-1.8200000524520874,43.88999938964844,1.8899999856948853
1744304532.716,-0.2800000011920929,30.170000076293945,3.5
1744304532.716,3.990000009536743,15.119999885559082,6.650000095367432
1744304532.716,6.860000133514404,1.2599999904632568,6.860000133514404
1744304532.79,11.40999984741211,-7.909999847412109,6.440000057220459
1744304532.79,15.890000343322754,-13.369999885559082,5.53000020980835
1744304532.79,21.139999389648438,-14,3.009999990463257
1744304532.79,27.3700008392334,-11.480000495910645,-0.49000000953674316
1744304532.79,34.86000061035156,-9.65999984741211,-3.7799999713897705
1744304532.79,41.93000030517578,-10.149999618530273,-6.369999885559082
1744304532.79,48.720001220703125,-13.09000015258789,-7.909999847412109
1744304532.79,51.2400016784668,-17.43000030517578,-11.34000015258789
1744304532.865,54.529998779296875,-20.09000015258789,-16.729999542236328
1744304532.865,57.04999923706055,-22.399999618530273,-22.190000534057617
1744304532.865,60.619998931884766,-25.6200008392334,-26.110000610351562
1744304532.865,64.4000015258789,-30.450000762939453,-30.799999237060547
1744304532.865,65.59000396728516,-33.11000061035156,-36.2599983215332
1744304532.865,66.98999786376953,-28.350000381469727,-41.86000061035156
1744304532.865,70.69999694824219,-16.239999771118164,-59.92000198364258
1744304532.865,91.06999969482422,-32.970001220703125,-85.33000183105469
1744304532.939,87.8499984741211,-79.16999816894531,-82.45999908447266
1744304532.939,52.290000915527344,-45.9900016784668,-67.34000396728516
1744304532.939,16.8700008392334,68.5999984741211,-73.5
1744304532.939,-10.149999618530273,149.94000244140625,-63.13999938964844
1744304532.939,-9.730000495910645,212.72999572753906,-37.2400016784668
1744304532.939,14.489999771118164,169.88999938964844,-25.479999542236328
1744304532.939,62.51000213623047,22.469999313354492,-8.75
1744304532.939,109.05999755859375,-143.4300079345703,-1.6800000667572021
1744304533.013,99.05000305175781,-227.29000854492188,-33.31999969482422
1744304533.013,55.439998626708984,-155.47000122070312,-59.849998474121094
1744304533.013,29.399999618530273,3.7100000381469727,-56.42000198364258
1744304533.013,22.049999237060547,84.62999725341797,-43.61000061035156
1744304533.013,31.780000686645508,26.530000686645508,-33.529998779296875
1744304533.013,56.97999954223633,-95.69000244140625,-27.649999618530273
1744304533.013,73.1500015258789,-153.3699951171875,-23.030000686645508
1744304533.013,58.2400016784668,-105.20999908447266,-22.049999237060547
1744304533.088,37.59000015258789,-33.38999938964844,-22.049999237060547
1744304533.088,29.68000030517578,1.5399999618530273,-23.3799991607666
1744304533.088,32.060001373291016,7.210000038146973,-27.229999542236328
1744304533.088,40.880001068115234,8.609999656677246,-30.799999237060547
1744304533.088,46.83000183105469,11.619999885559082,-30.380001068115234
1744304533.088,41.02000045776367,12.109999656677246,-26.880001068115234
1744304533.088,32.619998931884766,7.909999847412109,-25.899999618530273
1744304533.088,31.079999923706055,1.6800000667572021,-27.790000915527344
1744304533.162,32.060001373291016,-4.550000190734863,-27.440000534057617
1744304533.162,32.83000183105469,-14.279999732971191,-23.65999984741211
1744304533.162,30.65999984741211,-26.040000915527344,-19.670000076293945
1744304533.162,25.40999984741211,-35.84000015258789,-17.010000228881836
1744304533.162,22.049999237060547,-43.540000915527344,-14.630000114440918
1744304533.162,22.68000030517578,-49.630001068115234,-11.760000228881836
1744304533.162,22.889999389648438,-51.79999923706055,-8.680000305175781
1744304533.162,21.84000015258789,-51.939998626708984,-6.369999885559082
1744304533.237,21.139999389648438,-52.290000915527344,-4.550000190734863
1744304533.237,19.600000381469727,-51.65999984741211,-3.0799999237060547
1744304533.237,17.010000228881836,-49.97999954223633,-2.309999942779541
1744304533.237,14.489999771118164,-48.29999923706055,-2.240000009536743
1744304533.237,12.670000076293945,-44.869998931884766,-3.3600001335144043
1744304533.237,12.8100004196167,-39.900001525878906,-5.599999904632568
1744304533.237,13.649999618530273,-34.5099983215332,-7.980000019073486
1744304533.237,13.579999923706055,-30.239999771118164,-10.920000076293945
1744304533.311,12.529999732971191,-28,-14.420000076293945
1744304533.311,11.829999923706055,-27.020000457763672,-18.34000015258789
1744304533.311,12.25,-25.059999465942383,-22.329999923706055
1744304533.311,13.649999618530273,-21,-26.110000610351562
1744304533.311,15.819999694824219,-16.3799991607666,-29.610000610351562
1744304533.311,17.850000381469727,-12.600000381469727,-32.54999923706055
1744304533.311,19.46000099182129,-9.9399995803833,-35.560001373291016
1744304533.311,20.860000610351562,-9.3100004196167,-38.43000030517578
1744304533.385,21.559999465942383,-10.989999771118164,-41.29999923706055
1744304533.385,23.100000381469727,-13.579999923706055,-44.17000198364258
1744304533.385,24.850000381469727,-15.190000534057617,-46.970001220703125
1744304533.385,26.600000381469727,-16.100000381469727,-49.349998474121094
1744304533.385,28.280000686645508,-16.8700008392334,-51.17000198364258
1744304533.385,29.610000610351562,-18.059999465942383,-52.220001220703125
1744304533.385,29.889999389648438,-18.200000762939453,-52.63999938964844
1744304533.385,30.59000015258789,-17.639999389648438,-52.63999938964844
1744304533.459,31.010000228881836,-17.639999389648438,-52.08000183105469
1744304533.459,31.219999313354492,-18.270000457763672,-50.959999084472656
1744304533.459,30.380001068115234,-20.790000915527344,-49.349998474121094
1744304533.459,28.21000099182129,-24.920000076293945,-47.529998779296875
1744304533.459,23.940000534057617,-27.860000610351562,-44.939998626708984
1744304533.459,20.09000015258789,-31.219999313354492,-42.42000198364258
1744304533.459,15.329999923706055,-33.529998779296875,-39.47999954223633
1744304533.459,9.869999885559082,-33.810001373291016,-35.560001373291016
1744304533.534,4.550000190734863,-31.71000099182129,-30.8700008392334
1744304533.534,-0.49000000953674316,-31.920000076293945,-25.690000534057617
1744304533.534,-5.389999866485596,-35.42000198364258,-20.649999618530273
1744304533.534,-10.989999771118164,-40.95000076293945,-16.3799991607666
1744304533.534,-16.65999984741211,-45.779998779296875,-13.230000495910645
1744304533.534,-21.84000015258789,-47.38999938964844,-11.40999984741211
1744304533.534,-26.25,-47.95000076293945,-10.289999961853027
1744304533.534,-30.380001068115234,-48.86000061035156,-9.869999885559082
1744304533.609,-34.58000183105469,-51.380001068115234,-9.9399995803833
1744304533.609,-38.63999938964844,-54.25,-10.359999656677246
1744304533.609,-40.18000030517578,-55.790000915527344,-11.130000114440918
1744304533.609,-39.130001068115234,-46.060001373291016,-8.399999618530273
1744304533.609,-42.77000045776367,-19.31999969482422,-3.7799999713897705
1744304533.609,-44.869998931884766,6.369999885559082,-1.9600000381469727
1744304533.609,-44.59000015258789,12.670000076293945,-0.7699999809265137
1744304533.609,-46.54999923706055,3.990000009536743,2.5899999141693115
1744304533.683,-52.849998474121094,-9.100000381469727,8.329999923706055
1744304533.683,-67.41000366210938,-27.649999618530273,18.829999923706055
1744304533.683,-87.8499984741211,-47.11000061035156,31.360000610351562
1744304533.683,-101.70999908447266,-65.16999816894531,41.09000015258789
1744304533.683,-108.8499984741211,-87.01000213623047,54.529998779296875
1744304533.683,-103.73999786376953,-73.5,66.77999877929688
1744304533.683,-93.44999694824219,-49.4900016784668,75.73999786376953
1744304533.683,-82.94999694824219,-26.25,93.37999725341797
1744304533.757,-66.22000122070312,-21.21000099182129,99.47000122070312
1744304533.757,-53.619998931884766,-16.239999771118164,98.3499984741211
1744304533.757,-48.439998626708984,-0.2800000011920929,96.87999725341797
1744304533.757,-52.9900016784668,5.740000247955322,94.22000122070312
1744304533.757,-57.26000213623047,20.719999313354492,93.5199966430664
1744304533.757,-54.95000076293945,28.84000015258789,90.6500015258789
1744304533.757,-54.67000198364258,28.559999465942383,92.26000213623047
1744304533.757,-56.560001373291016,27.09000015258789,92.81999969482422
1744304533.831,-44.2400016784668,18.40999984741211,94.70999908447266
1744304533.831,-40.67000198364258,14.84000015258789,90.37000274658203
1744304533.831,-30.940000534057617,20.229999542236328,84.13999938964844
1744304533.831,-31.5,22.1200008392334,81.97000122070312
1744304533.831,-29.68000030517578,26.880001068115234,85.4000015258789
1744304533.831,-14.279999732971191,47.18000030517578,81.34000396728516
1744304533.831,-17.5,60.900001525878906,78.33000183105469
1744304533.831,-29.1200008392334,66.70999908447266,80.63999938964844
1744304533.906,-46.34000015258789,46.40999984741211,87.29000091552734
1744304533.906,-24.780000686645508,44.59000015258789,78.12000274658203
1744304533.906,-15.119999885559082,56.42000198364258,62.09000015258789
1744304533.906,-15.819999694824219,62.15999984741211,61.810001373291016
1744304533.906,-11.6899995803833,61.529998779296875,53.20000076293945
1744304533.906,-12.600000381469727,50.540000915527344,51.099998474121094
1744304533.906,-21.350000381469727,38.08000183105469,52.779998779296875
1744304533.906,-24.290000915527344,24.920000076293945,50.959999084472656
1744304533.981,-26.110000610351562,6.369999885559082,49.279998779296875
1744304533.981,-13.15999984741211,4.550000190734863,45.220001220703125
1744304533.981,-6.789999961853027,6.230000019073486,42.42000198364258
1744304533.981,-3.9200000762939453,5.670000076293945,42.349998474121094
1744304533.981,-1.1200000047683716,6.300000190734863,45.36000061035156
1744304533.981,-1.0499999523162842,3.009999990463257,43.400001525878906
1744304533.981,-0.14000000059604645,-1.9600000381469727,40.459999084472656
1744304533.981,-0.7699999809265137,-2.0299999713897705,39.130001068115234
1744304534.055,1.5399999618530273,-0.9800000190734863,36.470001220703125
1744304534.055,6.369999885559082,4.96999979019165,35.97999954223633
1744304534.055,12.319999694824219,6.300000190734863,34.29999923706055
1744304534.055,20.719999313354492,-4.829999923706055,33.18000030517578
1744304534.055,30.100000381469727,-17.850000381469727,33.18000030517578
1744304534.055,38.0099983215332,-31.639999389648438,30.940000534057617
1744304534.055,37.380001068115234,-48.369998931884766,29.260000228881836
1744304534.055,35.560001373291016,-64.54000091552734,25.200000762939453
1744304534.129,33.11000061035156,-68.80999755859375,21.21000099182129
1744304534.129,30.100000381469727,-51.939998626708984,14.90999984741211
1744304534.129,27.649999618530273,-14.350000381469727,7.139999866485596
1744304534.129,26.809999465942383,32.689998626708984,-1.1200000047683716
1744304534.129,28.280000686645508,69.86000061035156,-7.070000171661377
1744304534.129,28.420000076293945,87.36000061035156,-8.609999656677246
1744304534.129,27.790000915527344,81.97000122070312,-7.210000038146973
1744304534.129,24.010000228881836,72.0999984741211,-5.599999904632568
1744304534.203,15.399999618530273,80.77999877929688,-5.53000020980835
1744304534.203,6.440000057220459,103.73999786376953,-5.389999866485596
1744304534.203,13.720000267028809,134.19000244140625,-4.550000190734863
1744304534.203,17.850000381469727,139.3000030517578,-12.460000038146973
1744304534.203,21.770000457763672,130.89999389648438,-9.029999732971191
1744304534.203,23.239999771118164,120.26000213623047,-8.75
1744304534.203,25.40999984741211,94.56999969482422,-4.900000095367432
1744304534.203,31.5,62.09000015258789,-2.940000057220459
1744304534.278,43.61000061035156,30.380001068115234,-2.309999942779541
1744304534.278,58.029998779296875,0.14000000059604645,-5.599999904632568
1744304534.278,73.1500015258789,-23.450000762939453,-21.84000015258789
1744304534.278,98.41999816894531,-38.56999969482422,-67.69000244140625
1744304534.278,100.66000366210938,-59.709999084472656,-112.48999786376953
1744304534.278,35.13999938964844,-8.470000267028809,-100.94000244140625
1744304534.278,-7.769999980926514,127.4000015258789,-80.5
1744304534.278,-16.239999771118164,212.8000030517578,-59.150001525878906
1744304534.353,-8.890000343322754,248.85000610351562,-28.420000076293945
1744304534.353,28.21000099182129,70.3499984741211,-4.340000152587891
1744304534.353,86.16999816894531,-203.07000732421875,12.390000343322754
1744304534.353,112.20999908447266,-355.6700134277344,-3.0799999237060547
1744304534.353,97.30000305175781,-313.32000732421875,-45.08000183105469
1744304534.353,73.1500015258789,-54.95000076293945,-70.55999755859375
1744304534.353,50.81999969482422,142.52000427246094,-69.0199966430664
1744304534.353,32.060001373291016,129.36000061035156,-63.630001068115234
1744304534.427,27.719999313354492,23.8700008392334,-58.869998931884766
1744304534.427,45.63999938964844,-55.86000061035156,-46.34000015258789
1744304534.427,63.4900016784668,-78.68000030517578,-31.219999313354492
1744304534.427,60.970001220703125,-51.099998474121094,-28.21000099182129
1744304534.427,47.11000061035156,0.2800000011920929,-33.7400016784668
1744304534.427,33.67000198364258,17.149999618530273,-38.709999084472656
1744304534.427,32.27000045776367,-8.260000228881836,-39.40999984741211
1744304534.427,41.369998931884766,-35.560001373291016,-33.459999084472656
1744304534.501,45.779998779296875,-32.7599983215332,-24.989999771118164
1744304534.501,41.29999923706055,-10.569999694824219,-20.440000534057617
1744304534.501,32.619998931884766,-12.8100004196167,-19.040000915527344
1744304534.501,25.969999313354492,-30.799999237060547,-16.940000534057617
1744304534.501,24.71000099182129,-54.529998779296875,-17.219999313354492
1744304534.501,27.229999542236328,-71.95999908447266,-17.989999771118164
1744304534.501,21.979999542236328,-82.31999969482422,-18.6200008392334
1744304534.501,21.139999389648438,-78.75,-20.649999618530273
1744304534.576,22.75,-70.69999694824219,-22.399999618530273
1744304534.576,24.219999313354492,-58.310001373291016,-21.979999542236328
1744304534.576,21.350000381469727,-48.93000030517578,-20.440000534057617
1744304534.576,21.700000762939453,-37.45000076293945,-22.469999313354492
1744304534.576,21.559999465942383,-33.31999969482422,-25.549999237060547
1744304534.576,18.969999313354492,-32.7599983215332,-26.25
1744304534.576,18.270000457763672,-32.54999923706055,-28.06999969482422
1744304534.576,18.829999923706055,-33.25,-30.799999237060547
1744304534.65,18.6200008392334,-33.599998474121094,-32.7599983215332
1744304534.65,18.829999923706055,-34.5099983215332,-34.22999954223633
1744304534.65,19.18000030517578,-35.06999969482422,-35.279998779296875
1744304534.65,20.579999923706055,-31.079999923706055,-35.97999954223633
1744304534.65,21.700000762939453,-28.559999465942383,-36.75
1744304534.65,21.06999969482422,-28.770000457763672,-37.2400016784668
1744304534.65,20.510000228881836,-31.56999969482422,-38.0099983215332
1744304534.65,17.639999389648438,-35.630001068115234,-38.08000183105469
1744304534.725,15.890000343322754,-38.92000198364258,-38.08000183105469
1744304534.725,14.84000015258789,-40.459999084472656,-37.869998931884766
1744304534.725,13.720000267028809,-38.849998474121094,-36.959999084472656
